participant:assignmentId,trial,blockTrial,trialStartTime,monster,family,category,preferredFood,choice,correct,rt
A13OOAT2ORKH6V:3EWIJTFFVPMYW8IUWPUOOQWSVFU0E8,1,1,2937,Bear_4_2,Bear,category2D,pancakes,waffles,False,6032
A13OOAT2ORKH6V:3EWIJTFFVPMYW8IUWPUOOQWSVFU0E8,2,2,10228,Bear_3_3,Bear,category2D,pancakes,pancakes,True,285
A13OOAT2ORKH6V:3EWIJTFFVPMYW8IUWPUOOQWSVFU0E8,3,3,11271,Bear_5_1,Bear,category2D,waffles,pancakes,False,554
A13OOAT2ORKH6V:3EWIJTFFVPMYW8IUWPUOOQWSVFU0E8,4,4,13084,Bear_3_3,Bear,category2D,pancakes,pancakes,True,226
A13OOAT2ORKH6V:3EWIJTFFVPMYW8IUWPUOOQWSVFU0E8,5,5,14067,Bear_1_4,Bear,category2D,pancakes,pancakes,True,370
A13OOAT2ORKH6V:3EWIJTFFVPMYW8IUWPUOOQWSVFU0E8,6,6,15196,Bear_6_6,Bear,category2D,waffles,pancakes,False,1399
A13OOAT2ORKH6V:3EWIJTFFVPMYW8IUWPUOOQWSVFU0E8,7,7,17852,Bear_5_2,Bear,category2D,waffles,pancakes,False,805
A13OOAT2ORKH6V:3EWIJTFFVPMYW8IUWPUOOQWSVFU0E8,8,8,19914,Bear_1_4,Bear,category2D,pancakes,pancakes,True,619
A13OOAT2ORKH6V:3EWIJTFFVPMYW8IUWPUOOQWSVFU0E8,9,9,21291,Bear_5_6,Bear,category2D,waffles,waffles,True,689
A13OOAT2ORKH6V:3EWIJTFFVPMYW8IUWPUOOQWSVFU0E8,10,10,22736,Bear_3_2,Bear,category2D,pancakes,waffles,False,1022
A13OOAT2ORKH6V:3EWIJTFFVPMYW8IUWPUOOQWSVFU0E8,11,11,25015,Bear_1_4,Bear,category2D,pancakes,pancakes,True,528
A13OOAT2ORKH6V:3EWIJTFFVPMYW8IUWPUOOQWSVFU0E8,12,12,26299,Bear_1_3,Bear,category2D,pancakes,pancakes,True,624
A13OOAT2ORKH6V:3EWIJTFFVPMYW8IUWPUOOQWSVFU0E8,13,13,27685,Bear_5_5,Bear,category2D,waffles,waffles,True,933
A13OOAT2ORKH6V:3EWIJTFFVPMYW8IUWPUOOQWSVFU0E8,14,14,29380,Bear_4_2,Bear,category2D,pancakes,waffles,False,558
A13OOAT2ORKH6V:3EWIJTFFVPMYW8IUWPUOOQWSVFU0E8,15,15,31197,Bear_6_6,Bear,category2D,waffles,waffles,True,1044
A13OOAT2ORKH6V:3EWIJTFFVPMYW8IUWPUOOQWSVFU0E8,16,16,32997,Bear_2_2,Bear,category2D,pancakes,pancakes,True,1088
A13OOAT2ORKH6V:3EWIJTFFVPMYW8IUWPUOOQWSVFU0E8,17,17,34843,Bear_6_5,Bear,category2D,waffles,pancakes,False,772
A13OOAT2ORKH6V:3EWIJTFFVPMYW8IUWPUOOQWSVFU0E8,18,18,36871,Bear_6_1,Bear,category2D,waffles,pancakes,False,1250
A13OOAT2ORKH6V:3EWIJTFFVPMYW8IUWPUOOQWSVFU0E8,19,19,39377,Bear_1_4,Bear,category2D,pancakes,pancakes,True,656
A13OOAT2ORKH6V:3EWIJTFFVPMYW8IUWPUOOQWSVFU0E8,20,20,40792,Bear_6_5,Bear,category2D,waffles,waffles,True,734
A13OOAT2ORKH6V:3EWIJTFFVPMYW8IUWPUOOQWSVFU0E8,21,21,42286,Bear_1_2,Bear,category2D,pancakes,pancakes,True,897
A13OOAT2ORKH6V:3EWIJTFFVPMYW8IUWPUOOQWSVFU0E8,22,22,43942,Bear_5_3,Bear,category2D,waffles,waffles,True,1138
A13OOAT2ORKH6V:3EWIJTFFVPMYW8IUWPUOOQWSVFU0E8,23,23,45843,Bear_5_4,Bear,category2D,waffles,waffles,True,887
A13OOAT2ORKH6V:3EWIJTFFVPMYW8IUWPUOOQWSVFU0E8,24,24,47488,Bear_1_5,Bear,category2D,waffles,pancakes,False,997
A13OOAT2ORKH6V:3EWIJTFFVPMYW8IUWPUOOQWSVFU0E8,25,25,49739,Bear_1_3,Bear,category2D,pancakes,pancakes,True,667
A13OOAT2ORKH6V:3EWIJTFFVPMYW8IUWPUOOQWSVFU0E8,26,26,51165,Bear_4_4,Bear,category2D,pancakes,waffles,False,980
A13OOAT2ORKH6V:3EWIJTFFVPMYW8IUWPUOOQWSVFU0E8,27,27,53405,Bear_3_3,Bear,category2D,pancakes,pancakes,True,2430
A13OOAT2ORKH6V:3EWIJTFFVPMYW8IUWPUOOQWSVFU0E8,28,28,56593,Bear_4_3,Bear,category2D,pancakes,pancakes,True,548
A13OOAT2ORKH6V:3EWIJTFFVPMYW8IUWPUOOQWSVFU0E8,29,29,57899,Bear_3_3,Bear,category2D,pancakes,pancakes,True,824
A13OOAT2ORKH6V:3EWIJTFFVPMYW8IUWPUOOQWSVFU0E8,30,30,59478,Bear_4_3,Bear,category2D,pancakes,waffles,False,948
A13OOAT2ORKH6V:3EWIJTFFVPMYW8IUWPUOOQWSVFU0E8,31,31,61681,Bear_1_5,Bear,category2D,waffles,pancakes,False,650
A13OOAT2ORKH6V:3EWIJTFFVPMYW8IUWPUOOQWSVFU0E8,32,32,63587,Bear_2_3,Bear,category2D,pancakes,pancakes,True,821
A13OOAT2ORKH6V:3EWIJTFFVPMYW8IUWPUOOQWSVFU0E8,33,33,65166,Bear_6_2,Bear,category2D,waffles,pancakes,False,599
A13OOAT2ORKH6V:3EWIJTFFVPMYW8IUWPUOOQWSVFU0E8,34,34,67022,Bear_1_5,Bear,category2D,waffles,pancakes,False,529
A13OOAT2ORKH6V:3EWIJTFFVPMYW8IUWPUOOQWSVFU0E8,35,35,68806,Bear_2_3,Bear,category2D,pancakes,pancakes,True,920
A13OOAT2ORKH6V:3EWIJTFFVPMYW8IUWPUOOQWSVFU0E8,36,36,70480,Bear_6_6,Bear,category2D,waffles,waffles,True,993
A13OOAT2ORKH6V:3EWIJTFFVPMYW8IUWPUOOQWSVFU0E8,37,37,72226,Bear_5_4,Bear,category2D,waffles,pancakes,False,936
A13OOAT2ORKH6V:3EWIJTFFVPMYW8IUWPUOOQWSVFU0E8,38,38,74415,Bear_1_4,Bear,category2D,pancakes,pancakes,True,839
A13OOAT2ORKH6V:3EWIJTFFVPMYW8IUWPUOOQWSVFU0E8,39,39,76015,Bear_4_6,Bear,category2D,waffles,waffles,True,836
A13OOAT2ORKH6V:3EWIJTFFVPMYW8IUWPUOOQWSVFU0E8,40,40,77608,Bear_2_2,Bear,category2D,pancakes,pancakes,True,698
A13OOAT2ORKH6V:3EWIJTFFVPMYW8IUWPUOOQWSVFU0E8,41,41,79062,Bear_1_1,Bear,category2D,pancakes,pancakes,True,849
A13OOAT2ORKH6V:3EWIJTFFVPMYW8IUWPUOOQWSVFU0E8,42,42,80668,Bear_3_3,Bear,category2D,pancakes,waffles,False,915
A13OOAT2ORKH6V:3EWIJTFFVPMYW8IUWPUOOQWSVFU0E8,43,43,82842,Bear_4_1,Bear,category2D,pancakes,pancakes,True,819
A13OOAT2ORKH6V:3EWIJTFFVPMYW8IUWPUOOQWSVFU0E8,44,44,84420,Bear_3_2,Bear,category2D,pancakes,pancakes,True,674
A13OOAT2ORKH6V:3EWIJTFFVPMYW8IUWPUOOQWSVFU0E8,45,45,85855,Bear_3_2,Bear,category2D,pancakes,pancakes,True,581
A13OOAT2ORKH6V:3EWIJTFFVPMYW8IUWPUOOQWSVFU0E8,46,46,87195,Bear_6_3,Bear,category2D,waffles,waffles,True,936
A13OOAT2ORKH6V:3EWIJTFFVPMYW8IUWPUOOQWSVFU0E8,47,47,88888,Bear_3_4,Bear,category2D,pancakes,pancakes,True,826
A13OOAT2ORKH6V:3EWIJTFFVPMYW8IUWPUOOQWSVFU0E8,48,48,90475,Bear_3_6,Bear,category2D,waffles,pancakes,False,596
A13OOAT2ORKH6V:3EWIJTFFVPMYW8IUWPUOOQWSVFU0E8,49,49,92326,Bear_1_1,Bear,category2D,pancakes,pancakes,True,1145
A13OOAT2ORKH6V:3EWIJTFFVPMYW8IUWPUOOQWSVFU0E8,50,50,94229,Bear_6_4,Bear,category2D,waffles,waffles,True,1507
A13OOAT2ORKH6V:3EWIJTFFVPMYW8IUWPUOOQWSVFU0E8,51,51,96490,Bear_2_6,Bear,category2D,waffles,pancakes,False,626
A13OOAT2ORKH6V:3EWIJTFFVPMYW8IUWPUOOQWSVFU0E8,52,1,98623,GreenMonster_3_1,GreenMonster,category1D,grilled_cheese,grilled_cheese,True,810
A13OOAT2ORKH6V:3EWIJTFFVPMYW8IUWPUOOQWSVFU0E8,53,2,100192,GreenMonster_4_1,GreenMonster,category1D,grilled_cheese,grilled_cheese,True,442
A13OOAT2ORKH6V:3EWIJTFFVPMYW8IUWPUOOQWSVFU0E8,54,3,101393,GreenMonster_2_1,GreenMonster,category1D,tacos,grilled_cheese,False,605
A13OOAT2ORKH6V:3EWIJTFFVPMYW8IUWPUOOQWSVFU0E8,55,4,103257,GreenMonster_3_1,GreenMonster,category1D,grilled_cheese,grilled_cheese,True,436
A13OOAT2ORKH6V:3EWIJTFFVPMYW8IUWPUOOQWSVFU0E8,56,5,104451,GreenMonster_2_1,GreenMonster,category1D,tacos,grilled_cheese,False,397
A13OOAT2ORKH6V:3EWIJTFFVPMYW8IUWPUOOQWSVFU0E8,57,6,106103,GreenMonster_6_1,GreenMonster,category1D,grilled_cheese,tacos,False,478
A13OOAT2ORKH6V:3EWIJTFFVPMYW8IUWPUOOQWSVFU0E8,58,7,107837,GreenMonster_2_1,GreenMonster,category1D,tacos,grilled_cheese,False,717
A13OOAT2ORKH6V:3EWIJTFFVPMYW8IUWPUOOQWSVFU0E8,59,8,109811,GreenMonster_6_1,GreenMonster,category1D,grilled_cheese,grilled_cheese,True,580
A13OOAT2ORKH6V:3EWIJTFFVPMYW8IUWPUOOQWSVFU0E8,60,9,111151,GreenMonster_2_1,GreenMonster,category1D,tacos,grilled_cheese,False,560
A13OOAT2ORKH6V:3EWIJTFFVPMYW8IUWPUOOQWSVFU0E8,61,10,112968,GreenMonster_4_1,GreenMonster,category1D,grilled_cheese,grilled_cheese,True,580
A13OOAT2ORKH6V:3EWIJTFFVPMYW8IUWPUOOQWSVFU0E8,62,11,114308,GreenMonster_4_1,GreenMonster,category1D,grilled_cheese,grilled_cheese,True,1004
A13OOAT2ORKH6V:3EWIJTFFVPMYW8IUWPUOOQWSVFU0E8,63,12,116068,GreenMonster_5_1,GreenMonster,category1D,grilled_cheese,grilled_cheese,True,601
A13OOAT2ORKH6V:3EWIJTFFVPMYW8IUWPUOOQWSVFU0E8,64,13,117432,GreenMonster_5_1,GreenMonster,category1D,grilled_cheese,grilled_cheese,True,549
A13OOAT2ORKH6V:3EWIJTFFVPMYW8IUWPUOOQWSVFU0E8,65,14,118741,GreenMonster_3_1,GreenMonster,category1D,grilled_cheese,tacos,False,951
A13OOAT2ORKH6V:3EWIJTFFVPMYW8IUWPUOOQWSVFU0E8,66,15,120950,GreenMonster_5_1,GreenMonster,category1D,grilled_cheese,grilled_cheese,True,736
A13OOAT2ORKH6V:3EWIJTFFVPMYW8IUWPUOOQWSVFU0E8,67,16,122447,GreenMonster_4_1,GreenMonster,category1D,grilled_cheese,grilled_cheese,True,169
A13OOAT2ORKH6V:3EWIJTFFVPMYW8IUWPUOOQWSVFU0E8,68,17,123373,GreenMonster_2_1,GreenMonster,category1D,tacos,grilled_cheese,False,128
A13OOAT2ORKH6V:3EWIJTFFVPMYW8IUWPUOOQWSVFU0E8,69,18,124755,GreenMonster_3_1,GreenMonster,category1D,grilled_cheese,grilled_cheese,True,546
A13OOAT2ORKH6V:3EWIJTFFVPMYW8IUWPUOOQWSVFU0E8,70,19,126064,GreenMonster_4_1,GreenMonster,category1D,grilled_cheese,grilled_cheese,True,474
A13OOAT2ORKH6V:3EWIJTFFVPMYW8IUWPUOOQWSVFU0E8,71,20,127296,GreenMonster_4_1,GreenMonster,category1D,grilled_cheese,grilled_cheese,True,503
A13OOAT2ORKH6V:3EWIJTFFVPMYW8IUWPUOOQWSVFU0E8,72,21,128554,GreenMonster_4_1,GreenMonster,category1D,grilled_cheese,grilled_cheese,True,565
A13OOAT2ORKH6V:3EWIJTFFVPMYW8IUWPUOOQWSVFU0E8,73,22,129879,GreenMonster_6_1,GreenMonster,category1D,grilled_cheese,grilled_cheese,True,568
A13OOAT2ORKH6V:3EWIJTFFVPMYW8IUWPUOOQWSVFU0E8,74,23,131203,GreenMonster_3_1,GreenMonster,category1D,grilled_cheese,grilled_cheese,True,915
A13OOAT2ORKH6V:3EWIJTFFVPMYW8IUWPUOOQWSVFU0E8,75,24,132877,GreenMonster_5_1,GreenMonster,category1D,grilled_cheese,grilled_cheese,True,584
A13OOAT2ORKH6V:3EWIJTFFVPMYW8IUWPUOOQWSVFU0E8,76,25,134220,GreenMonster_2_1,GreenMonster,category1D,tacos,grilled_cheese,False,869
A13OOAT2ORKH6V:3EWIJTFFVPMYW8IUWPUOOQWSVFU0E8,77,26,136350,GreenMonster_5_1,GreenMonster,category1D,grilled_cheese,grilled_cheese,True,531
A13OOAT2ORKH6V:3EWIJTFFVPMYW8IUWPUOOQWSVFU0E8,78,27,137644,GreenMonster_2_1,GreenMonster,category1D,tacos,tacos,True,985
A13OOAT2ORKH6V:3EWIJTFFVPMYW8IUWPUOOQWSVFU0E8,79,28,139387,GreenMonster_1_1,GreenMonster,category1D,tacos,tacos,True,915
A13OOAT2ORKH6V:3EWIJTFFVPMYW8IUWPUOOQWSVFU0E8,80,29,141063,GreenMonster_4_1,GreenMonster,category1D,grilled_cheese,grilled_cheese,True,731
A13OOAT2ORKH6V:3EWIJTFFVPMYW8IUWPUOOQWSVFU0E8,81,30,142549,GreenMonster_4_1,GreenMonster,category1D,grilled_cheese,grilled_cheese,True,424
A13OOAT2ORKH6V:3EWIJTFFVPMYW8IUWPUOOQWSVFU0E8,82,31,143731,GreenMonster_4_1,GreenMonster,category1D,grilled_cheese,grilled_cheese,True,478
A13OOAT2ORKH6V:3EWIJTFFVPMYW8IUWPUOOQWSVFU0E8,83,32,144967,GreenMonster_5_1,GreenMonster,category1D,grilled_cheese,grilled_cheese,True,509
A13OOAT2ORKH6V:3EWIJTFFVPMYW8IUWPUOOQWSVFU0E8,84,33,146235,GreenMonster_3_1,GreenMonster,category1D,grilled_cheese,grilled_cheese,True,847
A13OOAT2ORKH6V:3EWIJTFFVPMYW8IUWPUOOQWSVFU0E8,85,34,147843,GreenMonster_4_1,GreenMonster,category1D,grilled_cheese,grilled_cheese,True,641
A13OOAT2ORKH6V:3EWIJTFFVPMYW8IUWPUOOQWSVFU0E8,86,35,149242,GreenMonster_3_1,GreenMonster,category1D,grilled_cheese,grilled_cheese,True,577
A13OOAT2ORKH6V:3EWIJTFFVPMYW8IUWPUOOQWSVFU0E8,87,36,150578,GreenMonster_1_1,GreenMonster,category1D,tacos,tacos,True,989
A13OOAT2ORKH6V:3EWIJTFFVPMYW8IUWPUOOQWSVFU0E8,88,37,152321,GreenMonster_2_1,GreenMonster,category1D,tacos,grilled_cheese,False,678
A13OOAT2ORKH6V:3EWIJTFFVPMYW8IUWPUOOQWSVFU0E8,89,38,154257,GreenMonster_1_1,GreenMonster,category1D,tacos,tacos,True,444
A13OOAT2ORKH6V:3EWIJTFFVPMYW8IUWPUOOQWSVFU0E8,90,39,155459,GreenMonster_4_1,GreenMonster,category1D,grilled_cheese,tacos,False,420
A13OOAT2ORKH6V:3EWIJTFFVPMYW8IUWPUOOQWSVFU0E8,91,40,157134,GreenMonster_3_1,GreenMonster,category1D,grilled_cheese,grilled_cheese,True,755
A13OOAT2ORKH6V:3EWIJTFFVPMYW8IUWPUOOQWSVFU0E8,92,41,158651,GreenMonster_2_1,GreenMonster,category1D,tacos,tacos,True,963
A13OOAT2ORKH6V:3EWIJTFFVPMYW8IUWPUOOQWSVFU0E8,93,42,160375,GreenMonster_3_1,GreenMonster,category1D,grilled_cheese,grilled_cheese,True,386
A13OOAT2ORKH6V:3EWIJTFFVPMYW8IUWPUOOQWSVFU0E8,94,43,161519,GreenMonster_3_1,GreenMonster,category1D,grilled_cheese,grilled_cheese,True,660
A13OOAT2ORKH6V:3EWIJTFFVPMYW8IUWPUOOQWSVFU0E8,95,44,162936,GreenMonster_2_1,GreenMonster,category1D,tacos,tacos,True,1013
A13OOAT2ORKH6V:3EWIJTFFVPMYW8IUWPUOOQWSVFU0E8,96,45,164703,GreenMonster_3_1,GreenMonster,category1D,grilled_cheese,grilled_cheese,True,484
A13OOAT2ORKH6V:3EWIJTFFVPMYW8IUWPUOOQWSVFU0E8,97,46,165942,GreenMonster_6_1,GreenMonster,category1D,grilled_cheese,grilled_cheese,True,804
A13OOAT2ORKH6V:3EWIJTFFVPMYW8IUWPUOOQWSVFU0E8,98,47,167510,GreenMonster_1_1,GreenMonster,category1D,tacos,tacos,True,1516
A13OOAT2ORKH6V:3EWIJTFFVPMYW8IUWPUOOQWSVFU0E8,99,48,169783,GreenMonster_1_1,GreenMonster,category1D,tacos,tacos,True,533
A13OOAT2ORKH6V:3EWIJTFFVPMYW8IUWPUOOQWSVFU0E8,100,49,171070,GreenMonster_1_1,GreenMonster,category1D,tacos,grilled_cheese,False,514
A13OOAT2ORKH6V:3EWIJTFFVPMYW8IUWPUOOQWSVFU0E8,101,1,173788,Squid_5_4,Squid,categoryRandom,carrot,carrot,True,796
A13OOAT2ORKH6V:3EWIJTFFVPMYW8IUWPUOOQWSVFU0E8,102,2,175340,Squid_4_5,Squid,categoryRandom,broccoli,carrot,False,842
A13OOAT2ORKH6V:3EWIJTFFVPMYW8IUWPUOOQWSVFU0E8,103,3,177441,Squid_4_2,Squid,categoryRandom,broccoli,broccoli,True,938
A13OOAT2ORKH6V:3EWIJTFFVPMYW8IUWPUOOQWSVFU0E8,104,4,179137,Squid_1_1,Squid,categoryRandom,broccoli,carrot,False,1178
A13OOAT2ORKH6V:3EWIJTFFVPMYW8IUWPUOOQWSVFU0E8,105,5,181571,Squid_6_3,Squid,categoryRandom,carrot,carrot,True,813
A13OOAT2ORKH6V:3EWIJTFFVPMYW8IUWPUOOQWSVFU0E8,106,6,183142,Squid_4_3,Squid,categoryRandom,broccoli,broccoli,True,810
A13OOAT2ORKH6V:3EWIJTFFVPMYW8IUWPUOOQWSVFU0E8,107,7,184708,Squid_4_4,Squid,categoryRandom,carrot,broccoli,False,1172
A13OOAT2ORKH6V:3EWIJTFFVPMYW8IUWPUOOQWSVFU0E8,108,8,187136,Squid_2_6,Squid,categoryRandom,carrot,carrot,True,1256
A13OOAT2ORKH6V:3EWIJTFFVPMYW8IUWPUOOQWSVFU0E8,109,9,189150,Squid_3_6,Squid,categoryRandom,carrot,carrot,True,599
A13OOAT2ORKH6V:3EWIJTFFVPMYW8IUWPUOOQWSVFU0E8,110,10,190508,Squid_6_4,Squid,categoryRandom,broccoli,carrot,False,576
A13OOAT2ORKH6V:3EWIJTFFVPMYW8IUWPUOOQWSVFU0E8,111,11,192339,Squid_4_5,Squid,categoryRandom,broccoli,broccoli,True,402
A13OOAT2ORKH6V:3EWIJTFFVPMYW8IUWPUOOQWSVFU0E8,112,12,193500,Squid_4_4,Squid,categoryRandom,carrot,broccoli,False,630
A13OOAT2ORKH6V:3EWIJTFFVPMYW8IUWPUOOQWSVFU0E8,113,13,195386,Squid_4_4,Squid,categoryRandom,carrot,carrot,True,423
A13OOAT2ORKH6V:3EWIJTFFVPMYW8IUWPUOOQWSVFU0E8,114,14,196567,Squid_6_4,Squid,categoryRandom,broccoli,carrot,False,397
A13OOAT2ORKH6V:3EWIJTFFVPMYW8IUWPUOOQWSVFU0E8,115,15,198222,Squid_2_2,Squid,categoryRandom,broccoli,carrot,False,1225
A13OOAT2ORKH6V:3EWIJTFFVPMYW8IUWPUOOQWSVFU0E8,116,16,200704,Squid_4_2,Squid,categoryRandom,broccoli,carrot,False,552
A13OOAT2ORKH6V:3EWIJTFFVPMYW8IUWPUOOQWSVFU0E8,117,17,202510,Squid_3_4,Squid,categoryRandom,broccoli,broccoli,True,342
A13OOAT2ORKH6V:3EWIJTFFVPMYW8IUWPUOOQWSVFU0E8,118,18,203609,Squid_2_6,Squid,categoryRandom,carrot,broccoli,False,196
A13OOAT2ORKH6V:3EWIJTFFVPMYW8IUWPUOOQWSVFU0E8,119,19,205066,Squid_2_4,Squid,categoryRandom,carrot,carrot,True,283
A13OOAT2ORKH6V:3EWIJTFFVPMYW8IUWPUOOQWSVFU0E8,120,20,206111,Squid_2_4,Squid,categoryRandom,carrot,carrot,True,2531
A13OOAT2ORKH6V:3EWIJTFFVPMYW8IUWPUOOQWSVFU0E8,121,21,209403,Squid_5_4,Squid,categoryRandom,carrot,carrot,True,552
A13OOAT2ORKH6V:3EWIJTFFVPMYW8IUWPUOOQWSVFU0E8,122,22,210711,Squid_3_1,Squid,categoryRandom,carrot,broccoli,False,834
A13OOAT2ORKH6V:3EWIJTFFVPMYW8IUWPUOOQWSVFU0E8,123,23,212800,Squid_5_2,Squid,categoryRandom,carrot,carrot,True,372
A13OOAT2ORKH6V:3EWIJTFFVPMYW8IUWPUOOQWSVFU0E8,124,24,213934,Squid_4_3,Squid,categoryRandom,broccoli,carrot,False,573
A13OOAT2ORKH6V:3EWIJTFFVPMYW8IUWPUOOQWSVFU0E8,125,25,215765,Squid_4_2,Squid,categoryRandom,broccoli,carrot,False,756
A13OOAT2ORKH6V:3EWIJTFFVPMYW8IUWPUOOQWSVFU0E8,126,26,217780,Squid_2_6,Squid,categoryRandom,carrot,broccoli,False,927
A13OOAT2ORKH6V:3EWIJTFFVPMYW8IUWPUOOQWSVFU0E8,127,27,219963,Squid_1_2,Squid,categoryRandom,carrot,broccoli,False,1429
A13OOAT2ORKH6V:3EWIJTFFVPMYW8IUWPUOOQWSVFU0E8,128,28,222653,Squid_1_6,Squid,categoryRandom,carrot,carrot,True,149
A13OOAT2ORKH6V:3EWIJTFFVPMYW8IUWPUOOQWSVFU0E8,129,1,224577,Bunny_1_3,Bunny,categoryIgnore1D,bananas,bananas,True,460
A13OOAT2ORKH6V:3EWIJTFFVPMYW8IUWPUOOQWSVFU0E8,130,2,225792,Bunny_3_2,Bunny,categoryIgnore1D,bananas,oranges,False,730
A13OOAT2ORKH6V:3EWIJTFFVPMYW8IUWPUOOQWSVFU0E8,131,3,227781,Bunny_4_4,Bunny,categoryIgnore1D,oranges,bananas,False,541
A13OOAT2ORKH6V:3EWIJTFFVPMYW8IUWPUOOQWSVFU0E8,132,4,229580,Bunny_3_1,Bunny,categoryIgnore1D,bananas,bananas,True,384
A13OOAT2ORKH6V:3EWIJTFFVPMYW8IUWPUOOQWSVFU0E8,133,5,230725,Bunny_3_2,Bunny,categoryIgnore1D,bananas,bananas,True,402
A13OOAT2ORKH6V:3EWIJTFFVPMYW8IUWPUOOQWSVFU0E8,134,6,231888,Bunny_4_2,Bunny,categoryIgnore1D,oranges,bananas,False,439
A13OOAT2ORKH6V:3EWIJTFFVPMYW8IUWPUOOQWSVFU0E8,135,7,233585,Bunny_4_5,Bunny,categoryIgnore1D,oranges,bananas,False,280
A13OOAT2ORKH6V:3EWIJTFFVPMYW8IUWPUOOQWSVFU0E8,136,8,235121,Bunny_2_1,Bunny,categoryIgnore1D,bananas,bananas,True,110
A13OOAT2ORKH6V:3EWIJTFFVPMYW8IUWPUOOQWSVFU0E8,137,9,235988,Bunny_4_3,Bunny,categoryIgnore1D,oranges,bananas,False,344
A13OOAT2ORKH6V:3EWIJTFFVPMYW8IUWPUOOQWSVFU0E8,138,10,237590,Bunny_6_4,Bunny,categoryIgnore1D,oranges,oranges,True,1015
A13OOAT2ORKH6V:3EWIJTFFVPMYW8IUWPUOOQWSVFU0E8,139,11,239367,Bunny_6_1,Bunny,categoryIgnore1D,oranges,bananas,False,701
A13OOAT2ORKH6V:3EWIJTFFVPMYW8IUWPUOOQWSVFU0E8,140,12,241326,Bunny_4_2,Bunny,categoryIgnore1D,oranges,bananas,False,1501
A13OOAT2ORKH6V:3EWIJTFFVPMYW8IUWPUOOQWSVFU0E8,141,13,244085,Bunny_5_4,Bunny,categoryIgnore1D,oranges,oranges,True,924
A13OOAT2ORKH6V:3EWIJTFFVPMYW8IUWPUOOQWSVFU0E8,142,14,245769,Bunny_2_6,Bunny,categoryIgnore1D,bananas,bananas,True,1326
A13OOAT2ORKH6V:3EWIJTFFVPMYW8IUWPUOOQWSVFU0E8,143,15,247854,Bunny_4_5,Bunny,categoryIgnore1D,oranges,bananas,False,966
A13OOAT2ORKH6V:3EWIJTFFVPMYW8IUWPUOOQWSVFU0E8,144,16,250079,Bunny_6_3,Bunny,categoryIgnore1D,oranges,oranges,True,1178
A13OOAT2ORKH6V:3EWIJTFFVPMYW8IUWPUOOQWSVFU0E8,145,17,252015,Bunny_4_4,Bunny,categoryIgnore1D,oranges,oranges,True,547
A13OOAT2ORKH6V:3EWIJTFFVPMYW8IUWPUOOQWSVFU0E8,146,18,253320,Bunny_6_4,Bunny,categoryIgnore1D,oranges,oranges,True,525
A13OOAT2ORKH6V:3EWIJTFFVPMYW8IUWPUOOQWSVFU0E8,147,19,254604,Bunny_3_5,Bunny,categoryIgnore1D,bananas,bananas,True,952
A13OOAT2ORKH6V:3EWIJTFFVPMYW8IUWPUOOQWSVFU0E8,148,20,256316,Bunny_4_4,Bunny,categoryIgnore1D,oranges,oranges,True,641
A13OOAT2ORKH6V:3EWIJTFFVPMYW8IUWPUOOQWSVFU0E8,149,21,257715,Bunny_3_6,Bunny,categoryIgnore1D,bananas,bananas,True,1425
A13OOAT2ORKH6V:3EWIJTFFVPMYW8IUWPUOOQWSVFU0E8,150,22,259896,Bunny_3_6,Bunny,categoryIgnore1D,bananas,bananas,True,909
A13OOAT2ORKH6V:3EWIJTFFVPMYW8IUWPUOOQWSVFU0E8,151,23,261564,Bunny_3_4,Bunny,categoryIgnore1D,bananas,bananas,True,569
A13OOAT2ORKH6V:3EWIJTFFVPMYW8IUWPUOOQWSVFU0E8,152,24,262893,Bunny_2_2,Bunny,categoryIgnore1D,bananas,bananas,True,612
A13OOAT2ORKH6V:3EWIJTFFVPMYW8IUWPUOOQWSVFU0E8,153,25,264263,Bunny_1_1,Bunny,categoryIgnore1D,bananas,bananas,True,1282
A13OOAT2ORKH6V:3EWIJTFFVPMYW8IUWPUOOQWSVFU0E8,154,26,266304,Bunny_1_3,Bunny,categoryIgnore1D,bananas,bananas,True,561
A13OOAT2ORKH6V:3EWIJTFFVPMYW8IUWPUOOQWSVFU0E8,155,27,267624,Bunny_4_4,Bunny,categoryIgnore1D,oranges,oranges,True,1483
A13OOAT2ORKH6V:3EWIJTFFVPMYW8IUWPUOOQWSVFU0E8,156,28,269866,Bunny_3_3,Bunny,categoryIgnore1D,bananas,bananas,True,434
A13OOAT2ORKH6V:3EWIJTFFVPMYW8IUWPUOOQWSVFU0E8,157,29,271059,Bunny_3_1,Bunny,categoryIgnore1D,bananas,oranges,False,974
A13OOAT2ORKH6V:3EWIJTFFVPMYW8IUWPUOOQWSVFU0E8,158,30,273289,Bunny_3_4,Bunny,categoryIgnore1D,bananas,bananas,True,491
A13OOAT2ORKH6V:3EWIJTFFVPMYW8IUWPUOOQWSVFU0E8,159,31,274543,Bunny_3_6,Bunny,categoryIgnore1D,bananas,bananas,True,489
A13OOAT2ORKH6V:3EWIJTFFVPMYW8IUWPUOOQWSVFU0E8,160,32,275791,Bunny_6_5,Bunny,categoryIgnore1D,oranges,bananas,False,809
A13OOAT2ORKH6V:3EWIJTFFVPMYW8IUWPUOOQWSVFU0E8,161,33,277854,Bunny_1_2,Bunny,categoryIgnore1D,bananas,bananas,True,606
A13OOAT2ORKH6V:3EWIJTFFVPMYW8IUWPUOOQWSVFU0E8,162,34,279222,Bunny_1_2,Bunny,categoryIgnore1D,bananas,bananas,True,528
A13OOAT2ORKH6V:3EWIJTFFVPMYW8IUWPUOOQWSVFU0E8,163,35,280513,Bunny_4_6,Bunny,categoryIgnore1D,oranges,bananas,False,1075
A13OOAT2ORKH6V:3EWIJTFFVPMYW8IUWPUOOQWSVFU0E8,164,36,282846,Bunny_5_3,Bunny,categoryIgnore1D,oranges,oranges,True,969
A13OOAT2ORKH6V:3EWIJTFFVPMYW8IUWPUOOQWSVFU0E8,165,37,284574,Bunny_6_3,Bunny,categoryIgnore1D,oranges,oranges,True,1086
A13OOAT2ORKH6V:3EWIJTFFVPMYW8IUWPUOOQWSVFU0E8,166,38,286416,Bunny_2_3,Bunny,categoryIgnore1D,bananas,bananas,True,954
A13OOAT2ORKH6V:3EWIJTFFVPMYW8IUWPUOOQWSVFU0E8,167,39,288128,Bunny_6_3,Bunny,categoryIgnore1D,oranges,oranges,True,840
A13OOAT2ORKH6V:3EWIJTFFVPMYW8IUWPUOOQWSVFU0E8,168,40,289726,Bunny_6_4,Bunny,categoryIgnore1D,oranges,oranges,True,929
A13OOAT2ORKH6V:3EWIJTFFVPMYW8IUWPUOOQWSVFU0E8,169,41,291413,Bunny_2_6,Bunny,categoryIgnore1D,bananas,oranges,False,465
A13OOAT2ORKH6V:3EWIJTFFVPMYW8IUWPUOOQWSVFU0E8,170,1,296262,GreenMonster_6_1,GreenMonster,category1D,grilled_cheese,tacos,False,1826
A13OOAT2ORKH6V:3EWIJTFFVPMYW8IUWPUOOQWSVFU0E8,171,2,299346,GreenMonster_4_1,GreenMonster,category1D,grilled_cheese,grilled_cheese,True,497
A13OOAT2ORKH6V:3EWIJTFFVPMYW8IUWPUOOQWSVFU0E8,172,3,300599,GreenMonster_5_1,GreenMonster,category1D,grilled_cheese,grilled_cheese,True,1876
A13OOAT2ORKH6V:3EWIJTFFVPMYW8IUWPUOOQWSVFU0E8,173,4,303232,GreenMonster_2_1,GreenMonster,category1D,tacos,grilled_cheese,False,398
A13OOAT2ORKH6V:3EWIJTFFVPMYW8IUWPUOOQWSVFU0E8,174,5,304890,GreenMonster_1_1,GreenMonster,category1D,tacos,tacos,True,2926
A13OOAT2ORKH6V:3EWIJTFFVPMYW8IUWPUOOQWSVFU0E8,175,1,309664,Bunny_5_6,Bunny,categoryIgnore1D,oranges,oranges,True,4160
A13OOAT2ORKH6V:3EWIJTFFVPMYW8IUWPUOOQWSVFU0E8,176,2,314584,Bunny_5_4,Bunny,categoryIgnore1D,oranges,oranges,True,889
A13OOAT2ORKH6V:3EWIJTFFVPMYW8IUWPUOOQWSVFU0E8,177,3,316227,Bunny_6_4,Bunny,categoryIgnore1D,oranges,oranges,True,731
A13OOAT2ORKH6V:3EWIJTFFVPMYW8IUWPUOOQWSVFU0E8,178,4,317713,Bunny_1_1,Bunny,categoryIgnore1D,bananas,bananas,True,1098
A13OOAT2ORKH6V:3EWIJTFFVPMYW8IUWPUOOQWSVFU0E8,179,5,319570,Bunny_1_5,Bunny,categoryIgnore1D,bananas,bananas,True,455
A13OOAT2ORKH6V:3EWIJTFFVPMYW8IUWPUOOQWSVFU0E8,180,6,320782,Bunny_6_1,Bunny,categoryIgnore1D,oranges,oranges,True,933
A13OOAT2ORKH6V:3EWIJTFFVPMYW8IUWPUOOQWSVFU0E8,181,7,322473,Bunny_6_1,Bunny,categoryIgnore1D,oranges,oranges,True,494
A13OOAT2ORKH6V:3EWIJTFFVPMYW8IUWPUOOQWSVFU0E8,182,8,323724,Bunny_4_4,Bunny,categoryIgnore1D,oranges,oranges,True,831
A13OOAT2ORKH6V:3EWIJTFFVPMYW8IUWPUOOQWSVFU0E8,183,1,326045,Squid_4_2,Squid,categoryRandom,broccoli,carrot,False,1285
A13OOAT2ORKH6V:3EWIJTFFVPMYW8IUWPUOOQWSVFU0E8,184,2,328587,Squid_6_4,Squid,categoryRandom,broccoli,carrot,False,514
A13OOAT2ORKH6V:3EWIJTFFVPMYW8IUWPUOOQWSVFU0E8,185,3,330362,Squid_5_4,Squid,categoryRandom,carrot,carrot,True,471
A13OOAT2ORKH6V:3EWIJTFFVPMYW8IUWPUOOQWSVFU0E8,186,4,331592,Squid_4_5,Squid,categoryRandom,broccoli,carrot,False,876
A13OOAT2ORKH6V:3EWIJTFFVPMYW8IUWPUOOQWSVFU0E8,187,5,333724,Squid_1_5,Squid,categoryRandom,carrot,carrot,True,928
A13OOAT2ORKH6V:3EWIJTFFVPMYW8IUWPUOOQWSVFU0E8,188,6,335414,Squid_3_6,Squid,categoryRandom,carrot,carrot,True,1082
A13OOAT2ORKH6V:3EWIJTFFVPMYW8IUWPUOOQWSVFU0E8,189,7,337254,Squid_1_2,Squid,categoryRandom,carrot,broccoli,False,1289
A13OOAT2ORKH6V:3EWIJTFFVPMYW8IUWPUOOQWSVFU0E8,190,8,339800,Squid_5_5,Squid,categoryRandom,broccoli,carrot,False,1076
A13OOAT2ORKH6V:3EWIJTFFVPMYW8IUWPUOOQWSVFU0E8,191,9,342134,Squid_5_6,Squid,categoryRandom,carrot,carrot,True,819
A13OOAT2ORKH6V:3EWIJTFFVPMYW8IUWPUOOQWSVFU0E8,192,10,343712,Squid_4_3,Squid,categoryRandom,broccoli,broccoli,True,997
A13OOAT2ORKH6V:3EWIJTFFVPMYW8IUWPUOOQWSVFU0E8,193,11,345469,Squid_2_6,Squid,categoryRandom,carrot,carrot,True,672
A13OOAT2ORKH6V:3EWIJTFFVPMYW8IUWPUOOQWSVFU0E8,194,12,346899,Squid_2_6,Squid,categoryRandom,carrot,carrot,True,652
A13OOAT2ORKH6V:3EWIJTFFVPMYW8IUWPUOOQWSVFU0E8,195,13,348310,Squid_1_1,Squid,categoryRandom,broccoli,broccoli,True,1079
A13OOAT2ORKH6V:3EWIJTFFVPMYW8IUWPUOOQWSVFU0E8,196,14,350150,Squid_5_2,Squid,categoryRandom,carrot,broccoli,False,693
A13OOAT2ORKH6V:3EWIJTFFVPMYW8IUWPUOOQWSVFU0E8,197,15,352100,Squid_4_6,Squid,categoryRandom,broccoli,carrot,False,1136
A13OOAT2ORKH6V:3EWIJTFFVPMYW8IUWPUOOQWSVFU0E8,198,16,354498,Squid_2_2,Squid,categoryRandom,broccoli,carrot,False,1363
A13OOAT2ORKH6V:3EWIJTFFVPMYW8IUWPUOOQWSVFU0E8,199,17,357122,Squid_1_1,Squid,categoryRandom,broccoli,broccoli,True,1507
A13OOAT2ORKH6V:3EWIJTFFVPMYW8IUWPUOOQWSVFU0E8,200,18,359389,Squid_4_5,Squid,categoryRandom,broccoli,carrot,False,657
A13OOAT2ORKH6V:3EWIJTFFVPMYW8IUWPUOOQWSVFU0E8,201,19,361307,Squid_5_4,Squid,categoryRandom,carrot,carrot,True,1027
A13OOAT2ORKH6V:3EWIJTFFVPMYW8IUWPUOOQWSVFU0E8,202,20,363091,Squid_2_4,Squid,categoryRandom,carrot,carrot,True,1013
A13OOAT2ORKH6V:3EWIJTFFVPMYW8IUWPUOOQWSVFU0E8,203,21,364865,Squid_1_1,Squid,categoryRandom,broccoli,broccoli,True,1211
A13OOAT2ORKH6V:3EWIJTFFVPMYW8IUWPUOOQWSVFU0E8,204,22,366833,Squid_2_6,Squid,categoryRandom,carrot,carrot,True,983
A13OOAT2ORKH6V:3EWIJTFFVPMYW8IUWPUOOQWSVFU0E8,205,23,368574,Squid_3_5,Squid,categoryRandom,carrot,carrot,True,1057
A13OOAT2ORKH6V:3EWIJTFFVPMYW8IUWPUOOQWSVFU0E8,206,24,370388,Squid_6_1,Squid,categoryRandom,broccoli,broccoli,True,990
A13OOAT2ORKH6V:3EWIJTFFVPMYW8IUWPUOOQWSVFU0E8,207,25,372132,Squid_4_6,Squid,categoryRandom,broccoli,carrot,False,1002
A13OOAT2ORKH6V:3EWIJTFFVPMYW8IUWPUOOQWSVFU0E8,208,26,374395,Squid_1_1,Squid,categoryRandom,broccoli,broccoli,True,1071
A13OOAT2ORKH6V:3EWIJTFFVPMYW8IUWPUOOQWSVFU0E8,209,27,376224,Squid_5_5,Squid,categoryRandom,broccoli,carrot,False,1064
A13OOAT2ORKH6V:3EWIJTFFVPMYW8IUWPUOOQWSVFU0E8,210,28,378543,Squid_3_3,Squid,categoryRandom,broccoli,broccoli,True,2968
A13OOAT2ORKH6V:3EWIJTFFVPMYW8IUWPUOOQWSVFU0E8,211,29,382273,Squid_4_6,Squid,categoryRandom,broccoli,carrot,False,1098
A13OOAT2ORKH6V:3EWIJTFFVPMYW8IUWPUOOQWSVFU0E8,212,30,384627,Squid_1_4,Squid,categoryRandom,broccoli,carrot,False,1189
A13OOAT2ORKH6V:3EWIJTFFVPMYW8IUWPUOOQWSVFU0E8,213,31,387074,Squid_1_3,Squid,categoryRandom,broccoli,broccoli,True,775
A13OOAT2ORKH6V:3EWIJTFFVPMYW8IUWPUOOQWSVFU0E8,214,32,388609,Squid_6_3,Squid,categoryRandom,carrot,broccoli,False,590
A13OOAT2ORKH6V:3EWIJTFFVPMYW8IUWPUOOQWSVFU0E8,215,33,390454,Squid_6_4,Squid,categoryRandom,broccoli,carrot,False,7429
A13OOAT2ORKH6V:3EWIJTFFVPMYW8IUWPUOOQWSVFU0E8,216,34,399137,Squid_1_1,Squid,categoryRandom,broccoli,broccoli,True,224
A13OOAT2ORKH6V:3EWIJTFFVPMYW8IUWPUOOQWSVFU0E8,217,35,400120,Squid_3_3,Squid,categoryRandom,broccoli,broccoli,True,426
A13OOAT2ORKH6V:3EWIJTFFVPMYW8IUWPUOOQWSVFU0E8,218,1,401895,Bear_1_3,Bear,category2D,pancakes,pancakes,True,1591
A13OOAT2ORKH6V:3EWIJTFFVPMYW8IUWPUOOQWSVFU0E8,219,2,404244,Bear_1_1,Bear,category2D,pancakes,pancakes,True,1455
A13OOAT2ORKH6V:3EWIJTFFVPMYW8IUWPUOOQWSVFU0E8,220,3,406457,Bear_6_2,Bear,category2D,waffles,waffles,True,975
A13OOAT2ORKH6V:3EWIJTFFVPMYW8IUWPUOOQWSVFU0E8,221,4,408191,Bear_2_2,Bear,category2D,pancakes,pancakes,True,755
A13OOAT2ORKH6V:3EWIJTFFVPMYW8IUWPUOOQWSVFU0E8,222,5,409701,Bear_3_6,Bear,category2D,waffles,pancakes,False,828
A13OOAT2ORKH6V:3EWIJTFFVPMYW8IUWPUOOQWSVFU0E8,223,6,411790,Bear_1_6,Bear,category2D,waffles,waffles,True,1109
A13OOAT2ORKH6V:3EWIJTFFVPMYW8IUWPUOOQWSVFU0E8,224,7,413654,Bear_6_5,Bear,category2D,waffles,waffles,True,1067
A13OOAT2ORKH6V:3EWIJTFFVPMYW8IUWPUOOQWSVFU0E8,225,8,415482,Bear_6_5,Bear,category2D,waffles,waffles,True,717
A13OOAT2ORKH6V:3EWIJTFFVPMYW8IUWPUOOQWSVFU0E8,226,9,416957,Bear_2_5,Bear,category2D,waffles,pancakes,False,809
A13OOAT2ORKH6V:3EWIJTFFVPMYW8IUWPUOOQWSVFU0E8,227,10,419023,Bear_5_1,Bear,category2D,waffles,waffles,True,1098
A13OOAT2ORKH6V:3EWIJTFFVPMYW8IUWPUOOQWSVFU0E8,228,11,420877,Bear_6_1,Bear,category2D,waffles,waffles,True,624
A13OOAT2ORKH6V:3EWIJTFFVPMYW8IUWPUOOQWSVFU0E8,229,12,422258,Bear_6_4,Bear,category2D,waffles,waffles,True,616
A13OOAT2ORKH6V:3EWIJTFFVPMYW8IUWPUOOQWSVFU0E8,230,13,423634,Bear_3_4,Bear,category2D,pancakes,pancakes,True,1490
A13OOAT2ORKH6V:3EWIJTFFVPMYW8IUWPUOOQWSVFU0E8,231,14,425880,Bear_6_1,Bear,category2D,waffles,waffles,True,646
A13OOAT2ORKH6V:3EWIJTFFVPMYW8IUWPUOOQWSVFU0E8,232,15,427283,Bear_4_4,Bear,category2D,pancakes,waffles,False,556
A13OOAT2ORKH6V:3EWIJTFFVPMYW8IUWPUOOQWSVFU0E8,233,16,429100,Bear_1_3,Bear,category2D,pancakes,pancakes,True,1079
A13OOAT2ORKH6V:3EWIJTFFVPMYW8IUWPUOOQWSVFU0E8,234,17,430937,Bear_3_6,Bear,category2D,waffles,pancakes,False,599
A13OOAT2ORKH6V:3EWIJTFFVPMYW8IUWPUOOQWSVFU0E8,235,18,432792,Bear_3_2,Bear,category2D,pancakes,pancakes,True,1026
A13OOAT2ORKH6V:3EWIJTFFVPMYW8IUWPUOOQWSVFU0E8,236,19,434574,Bear_4_1,Bear,category2D,pancakes,waffles,False,856
A13OOAT2ORKH6V:3EWIJTFFVPMYW8IUWPUOOQWSVFU0E8,237,20,436688,Bear_2_6,Bear,category2D,waffles,waffles,True,1119
A13OOAT2ORKH6V:3EWIJTFFVPMYW8IUWPUOOQWSVFU0E8,238,21,438563,Bear_4_4,Bear,category2D,pancakes,pancakes,True,1276
A13OOAT2ORKH6V:3EWIJTFFVPMYW8IUWPUOOQWSVFU0E8,239,22,440596,Bear_6_1,Bear,category2D,waffles,waffles,True,930
A13OOAT2ORKH6V:3EWIJTFFVPMYW8IUWPUOOQWSVFU0E8,240,23,442284,Bear_1_6,Bear,category2D,waffles,waffles,True,1253
A13OOAT2ORKH6V:3EWIJTFFVPMYW8IUWPUOOQWSVFU0E8,241,24,444295,Bear_4_5,Bear,category2D,waffles,waffles,True,615
A13OOAT2ORKH6V:3EWIJTFFVPMYW8IUWPUOOQWSVFU0E8,242,25,445670,Bear_6_4,Bear,category2D,waffles,waffles,True,724
A13OOAT2ORKH6V:3EWIJTFFVPMYW8IUWPUOOQWSVFU0E8,243,26,447153,Bear_2_1,Bear,category2D,pancakes,pancakes,True,973
A13OOAT2ORKH6V:3EWIJTFFVPMYW8IUWPUOOQWSVFU0E8,244,27,448883,Bear_6_1,Bear,category2D,waffles,waffles,True,811
A13OOAT2ORKH6V:3EWIJTFFVPMYW8IUWPUOOQWSVFU0E8,245,28,450451,Bear_1_6,Bear,category2D,waffles,waffles,True,1133
A13OOAT2ORKH6V:3EWIJTFFVPMYW8IUWPUOOQWSVFU0E8,246,29,452338,Bear_2_4,Bear,category2D,pancakes,waffles,False,919
A13OOAT2ORKH6V:3EWIJTFFVPMYW8IUWPUOOQWSVFU0E8,247,30,454518,Bear_5_3,Bear,category2D,waffles,waffles,True,1341
A13OOAT2ORKH6V:3EWIJTFFVPMYW8IUWPUOOQWSVFU0E8,248,31,456619,Bear_6_3,Bear,category2D,waffles,waffles,True,868
A13OOAT2ORKH6V:3EWIJTFFVPMYW8IUWPUOOQWSVFU0E8,249,32,458246,Bear_5_5,Bear,category2D,waffles,waffles,True,816
A13OOAT2ORKH6V:3EWIJTFFVPMYW8IUWPUOOQWSVFU0E8,250,33,459821,Bear_6_5,Bear,category2D,waffles,waffles,True,591
A13OOAT2ORKH6V:3EWIJTFFVPMYW8IUWPUOOQWSVFU0E8,251,34,461171,Bear_5_6,Bear,category2D,waffles,waffles,True,576
A13OOAT2ORKH6V:3EWIJTFFVPMYW8IUWPUOOQWSVFU0E8,252,35,462502,Bear_5_2,Bear,category2D,waffles,pancakes,False,969
A13OOAT2ORKH6V:3EWIJTFFVPMYW8IUWPUOOQWSVFU0E8,253,36,464727,Bear_3_3,Bear,category2D,pancakes,waffles,False,537
A13OOAT2ORKH6V:3EWIJTFFVPMYW8IUWPUOOQWSVFU0E8,254,37,466523,Bear_4_3,Bear,category2D,pancakes,waffles,False,594
A13OOAT2ORKH6V:3EWIJTFFVPMYW8IUWPUOOQWSVFU0E8,255,38,468372,Bear_3_2,Bear,category2D,pancakes,pancakes,True,342
A13OOAT2ORKH6V:3EWIJTFFVPMYW8IUWPUOOQWSVFU0E8,256,39,469478,Bear_1_4,Bear,category2D,pancakes,pancakes,True,541
A13OOAT2ORKH6V:3EWIJTFFVPMYW8IUWPUOOQWSVFU0E8,257,40,470778,Bear_5_4,Bear,category2D,waffles,pancakes,False,554
A13OOAT2ORKH6V:3EWIJTFFVPMYW8IUWPUOOQWSVFU0E8,258,41,472587,Bear_6_6,Bear,category2D,waffles,waffles,True,185
A13OOAT2ORKH6V:3EWIJTFFVPMYW8IUWPUOOQWSVFU0E8,259,42,473535,Bear_1_6,Bear,category2D,waffles,pancakes,False,992
A13OOAT2ORKH6V:3EWIJTFFVPMYW8IUWPUOOQWSVFU0E8,260,43,475783,Bear_6_2,Bear,category2D,waffles,waffles,True,701
A13OOAT2ORKH6V:3EWIJTFFVPMYW8IUWPUOOQWSVFU0E8,261,44,477244,Bear_3_2,Bear,category2D,pancakes,waffles,False,3815
A13OOAT2ORKH6V:3EWIJTFFVPMYW8IUWPUOOQWSVFU0E8,262,45,482317,Bear_4_4,Bear,category2D,pancakes,waffles,False,618
A13OOAT2ORKH6V:3EWIJTFFVPMYW8IUWPUOOQWSVFU0E8,263,46,484190,Bear_1_5,Bear,category2D,waffles,pancakes,False,642
A13OOAT2ORKH6V:3EWIJTFFVPMYW8IUWPUOOQWSVFU0E8,264,47,486089,Bear_5_3,Bear,category2D,waffles,waffles,True,948
A13OOAT2ORKH6V:3EWIJTFFVPMYW8IUWPUOOQWSVFU0E8,265,48,487798,Bear_4_3,Bear,category2D,pancakes,waffles,False,431
A13OOAT2ORKH6V:3EWIJTFFVPMYW8IUWPUOOQWSVFU0E8,266,49,489483,Bear_1_5,Bear,category2D,waffles,pancakes,False,966
A13OOAT2ORKH6V:3EWIJTFFVPMYW8IUWPUOOQWSVFU0E8,267,50,491706,Bear_4_2,Bear,category2D,pancakes,waffles,False,153
A13OOAT2ORKH6V:3EWIJTFFVPMYW8IUWPUOOQWSVFU0E8,268,1,495140,Bunny_3_4,Bunny,categoryIgnore1D,bananas,bananas,True,1647
A13OOAT2ORKH6V:3EWIJTFFVPMYW8IUWPUOOQWSVFU0E8,269,2,497550,Bunny_4_2,Bunny,categoryIgnore1D,oranges,bananas,False,415
A13OOAT2ORKH6V:3EWIJTFFVPMYW8IUWPUOOQWSVFU0E8,270,3,499225,Bunny_6_2,Bunny,categoryIgnore1D,oranges,oranges,True,645
A13OOAT2ORKH6V:3EWIJTFFVPMYW8IUWPUOOQWSVFU0E8,271,4,500628,Bunny_1_1,Bunny,categoryIgnore1D,bananas,oranges,False,321
A13OOAT2ORKH6V:3EWIJTFFVPMYW8IUWPUOOQWSVFU0E8,272,5,502209,Bunny_3_3,Bunny,categoryIgnore1D,bananas,bananas,True,1058
A13OOAT2ORKH6V:3EWIJTFFVPMYW8IUWPUOOQWSVFU0E8,273,6,504027,Bunny_2_4,Bunny,categoryIgnore1D,bananas,bananas,True,1483
A13OOAT2ORKH6V:3EWIJTFFVPMYW8IUWPUOOQWSVFU0E8,274,7,506269,Bunny_5_6,Bunny,categoryIgnore1D,oranges,oranges,True,823
A13OOAT2ORKH6V:3EWIJTFFVPMYW8IUWPUOOQWSVFU0E8,275,8,507847,Bunny_5_2,Bunny,categoryIgnore1D,oranges,oranges,True,655
A13OOAT2ORKH6V:3EWIJTFFVPMYW8IUWPUOOQWSVFU0E8,276,9,509263,Bunny_4_2,Bunny,categoryIgnore1D,oranges,oranges,True,544
A13OOAT2ORKH6V:3EWIJTFFVPMYW8IUWPUOOQWSVFU0E8,277,10,510565,Bunny_5_2,Bunny,categoryIgnore1D,oranges,oranges,True,577
A13OOAT2ORKH6V:3EWIJTFFVPMYW8IUWPUOOQWSVFU0E8,278,11,511903,Bunny_5_6,Bunny,categoryIgnore1D,oranges,oranges,True,582
A13OOAT2ORKH6V:3EWIJTFFVPMYW8IUWPUOOQWSVFU0E8,279,12,513246,Bunny_4_3,Bunny,categoryIgnore1D,oranges,oranges,True,589
A13OOAT2ORKH6V:3EWIJTFFVPMYW8IUWPUOOQWSVFU0E8,280,13,514592,Bunny_3_4,Bunny,categoryIgnore1D,bananas,bananas,True,969
A13OOAT2ORKH6V:3EWIJTFFVPMYW8IUWPUOOQWSVFU0E8,281,14,516320,Bunny_1_3,Bunny,categoryIgnore1D,bananas,bananas,True,575
A13OOAT2ORKH6V:3EWIJTFFVPMYW8IUWPUOOQWSVFU0E8,282,15,517656,Bunny_1_5,Bunny,categoryIgnore1D,bananas,bananas,True,559
A13OOAT2ORKH6V:3EWIJTFFVPMYW8IUWPUOOQWSVFU0E8,283,16,518976,Bunny_3_2,Bunny,categoryIgnore1D,bananas,oranges,False,1339
A13OOAT2ORKH6V:3EWIJTFFVPMYW8IUWPUOOQWSVFU0E8,284,17,521575,Bunny_3_2,Bunny,categoryIgnore1D,bananas,bananas,True,967
A13OOAT2ORKH6V:3EWIJTFFVPMYW8IUWPUOOQWSVFU0E8,285,18,523299,Bunny_6_4,Bunny,categoryIgnore1D,oranges,oranges,True,841
A13OOAT2ORKH6V:3EWIJTFFVPMYW8IUWPUOOQWSVFU0E8,286,1,525690,Bear_5_4,Bear,category2D,waffles,waffles,True,1435
A13OOAT2ORKH6V:3EWIJTFFVPMYW8IUWPUOOQWSVFU0E8,287,2,527879,Bear_2_4,Bear,category2D,pancakes,waffles,False,1083
A13OOAT2ORKH6V:3EWIJTFFVPMYW8IUWPUOOQWSVFU0E8,288,3,530223,Bear_2_6,Bear,category2D,waffles,waffles,True,1088
A13OOAT2ORKH6V:3EWIJTFFVPMYW8IUWPUOOQWSVFU0E8,289,4,532073,Bear_1_6,Bear,category2D,waffles,waffles,True,542
A13OOAT2ORKH6V:3EWIJTFFVPMYW8IUWPUOOQWSVFU0E8,290,5,533375,Bear_6_4,Bear,category2D,waffles,waffles,True,1017
A13OOAT2ORKH6V:3EWIJTFFVPMYW8IUWPUOOQWSVFU0E8,291,6,535152,Bear_6_6,Bear,category2D,waffles,waffles,True,763
A13OOAT2ORKH6V:3EWIJTFFVPMYW8IUWPUOOQWSVFU0E8,292,7,536670,Bear_3_6,Bear,category2D,waffles,waffles,True,798
A13OOAT2ORKH6V:3EWIJTFFVPMYW8IUWPUOOQWSVFU0E8,293,8,538229,Bear_1_3,Bear,category2D,pancakes,pancakes,True,798
A13OOAT2ORKH6V:3EWIJTFFVPMYW8IUWPUOOQWSVFU0E8,294,9,539785,Bear_6_1,Bear,category2D,waffles,waffles,True,899
A13OOAT2ORKH6V:3EWIJTFFVPMYW8IUWPUOOQWSVFU0E8,295,10,541443,Bear_3_4,Bear,category2D,pancakes,pancakes,True,1064
A13OOAT2ORKH6V:3EWIJTFFVPMYW8IUWPUOOQWSVFU0E8,296,11,543265,Bear_4_1,Bear,category2D,pancakes,pancakes,True,1222
A13OOAT2ORKH6V:3EWIJTFFVPMYW8IUWPUOOQWSVFU0E8,297,12,545244,Bear_3_4,Bear,category2D,pancakes,pancakes,True,1156
A13OOAT2ORKH6V:3EWIJTFFVPMYW8IUWPUOOQWSVFU0E8,298,13,547157,Bear_6_5,Bear,category2D,waffles,waffles,True,570
A13OOAT2ORKH6V:3EWIJTFFVPMYW8IUWPUOOQWSVFU0E8,299,14,548486,Bear_3_4,Bear,category2D,pancakes,pancakes,True,1064
A13OOAT2ORKH6V:3EWIJTFFVPMYW8IUWPUOOQWSVFU0E8,300,15,550306,Bear_6_5,Bear,category2D,waffles,waffles,True,511
A13OOAT2ORKH6V:3EWIJTFFVPMYW8IUWPUOOQWSVFU0E8,301,16,551574,Bear_6_2,Bear,category2D,waffles,waffles,True,998
A13OOAT2ORKH6V:3EWIJTFFVPMYW8IUWPUOOQWSVFU0E8,302,17,553331,Bear_5_4,Bear,category2D,waffles,waffles,True,734
A13OOAT2ORKH6V:3EWIJTFFVPMYW8IUWPUOOQWSVFU0E8,303,18,554825,Bear_1_3,Bear,category2D,pancakes,pancakes,True,1527
A13OOAT2ORKH6V:3EWIJTFFVPMYW8IUWPUOOQWSVFU0E8,304,1,558135,GreenMonster_1_1,GreenMonster,category1D,tacos,grilled_cheese,False,3865
A13OOAT2ORKH6V:3EWIJTFFVPMYW8IUWPUOOQWSVFU0E8,305,2,563257,GreenMonster_2_1,GreenMonster,category1D,tacos,grilled_cheese,False,678
A13OOAT2ORKH6V:3EWIJTFFVPMYW8IUWPUOOQWSVFU0E8,306,3,565192,GreenMonster_4_1,GreenMonster,category1D,grilled_cheese,grilled_cheese,True,551
A13OOAT2ORKH6V:3EWIJTFFVPMYW8IUWPUOOQWSVFU0E8,307,4,566503,GreenMonster_6_1,GreenMonster,category1D,grilled_cheese,grilled_cheese,True,477
A13OOAT2ORKH6V:3EWIJTFFVPMYW8IUWPUOOQWSVFU0E8,308,5,567739,GreenMonster_2_1,GreenMonster,category1D,tacos,grilled_cheese,False,353
A13OOAT2ORKH6V:3EWIJTFFVPMYW8IUWPUOOQWSVFU0E8,309,6,569348,GreenMonster_1_1,GreenMonster,category1D,tacos,tacos,True,580
A13OOAT2ORKH6V:3EWIJTFFVPMYW8IUWPUOOQWSVFU0E8,310,7,570689,GreenMonster_4_1,GreenMonster,category1D,grilled_cheese,tacos,False,469
A13OOAT2ORKH6V:3EWIJTFFVPMYW8IUWPUOOQWSVFU0E8,311,8,572417,GreenMonster_1_1,GreenMonster,category1D,tacos,tacos,True,1058
A13OOAT2ORKH6V:3EWIJTFFVPMYW8IUWPUOOQWSVFU0E8,312,9,574236,GreenMonster_2_1,GreenMonster,category1D,tacos,tacos,True,484
A13OOAT2ORKH6V:3EWIJTFFVPMYW8IUWPUOOQWSVFU0E8,313,10,575478,GreenMonster_1_1,GreenMonster,category1D,tacos,tacos,True,750
A13OOAT2ORKH6V:3EWIJTFFVPMYW8IUWPUOOQWSVFU0E8,314,11,576983,GreenMonster_2_1,GreenMonster,category1D,tacos,grilled_cheese,False,587
A13OOAT2ORKH6V:3EWIJTFFVPMYW8IUWPUOOQWSVFU0E8,315,12,578833,GreenMonster_2_1,GreenMonster,category1D,tacos,tacos,True,582
A13OOAT2ORKH6V:3EWIJTFFVPMYW8IUWPUOOQWSVFU0E8,316,13,580174,GreenMonster_5_1,GreenMonster,category1D,grilled_cheese,tacos,False,186
A13OOAT2ORKH6V:3EWIJTFFVPMYW8IUWPUOOQWSVFU0E8,317,14,581616,GreenMonster_4_1,GreenMonster,category1D,grilled_cheese,grilled_cheese,True,1212
A13OOAT2ORKH6V:3EWIJTFFVPMYW8IUWPUOOQWSVFU0E8,318,1,587029,Bunny_3_3,Bunny,categoryIgnore1D,bananas,bananas,True,2286
A13OOAT2ORKH6V:3EWIJTFFVPMYW8IUWPUOOQWSVFU0E8,319,2,590071,Bunny_5_3,Bunny,categoryIgnore1D,oranges,bananas,False,752
A13OOAT2ORKH6V:3EWIJTFFVPMYW8IUWPUOOQWSVFU0E8,320,3,592079,Bunny_5_3,Bunny,categoryIgnore1D,oranges,oranges,True,548
A13OOAT2ORKH6V:3EWIJTFFVPMYW8IUWPUOOQWSVFU0E8,321,4,593386,Bunny_2_4,Bunny,categoryIgnore1D,bananas,bananas,True,3324
A13OOAT2ORKH6V:3EWIJTFFVPMYW8IUWPUOOQWSVFU0E8,322,5,597472,Bunny_3_3,Bunny,categoryIgnore1D,bananas,bananas,True,513
A13OOAT2ORKH6V:3EWIJTFFVPMYW8IUWPUOOQWSVFU0E8,323,6,598744,Bunny_4_1,Bunny,categoryIgnore1D,oranges,oranges,True,276
A13OOAT2ORKH6V:3EWIJTFFVPMYW8IUWPUOOQWSVFU0E8,324,7,599778,Bunny_1_1,Bunny,categoryIgnore1D,bananas,bananas,True,638
A13OOAT2ORKH6V:3EWIJTFFVPMYW8IUWPUOOQWSVFU0E8,325,8,601176,Bunny_4_6,Bunny,categoryIgnore1D,oranges,oranges,True,1009
A13OOAT2ORKH6V:3EWIJTFFVPMYW8IUWPUOOQWSVFU0E8,326,9,602940,Bunny_5_2,Bunny,categoryIgnore1D,oranges,oranges,True,912
A13OOAT2ORKH6V:3EWIJTFFVPMYW8IUWPUOOQWSVFU0E8,327,10,604609,Bunny_2_2,Bunny,categoryIgnore1D,bananas,bananas,True,667
A13OOAT2ORKH6V:3EWIJTFFVPMYW8IUWPUOOQWSVFU0E8,328,11,606033,Bunny_5_4,Bunny,categoryIgnore1D,oranges,oranges,True,826
A13OOAT2ORKH6V:3EWIJTFFVPMYW8IUWPUOOQWSVFU0E8,329,12,607619,Bunny_5_3,Bunny,categoryIgnore1D,oranges,oranges,True,822
A13OOAT2ORKH6V:3EWIJTFFVPMYW8IUWPUOOQWSVFU0E8,330,13,609204,Bunny_5_1,Bunny,categoryIgnore1D,oranges,oranges,True,887
A13OOAT2ORKH6V:3EWIJTFFVPMYW8IUWPUOOQWSVFU0E8,331,14,610846,Bunny_5_4,Bunny,categoryIgnore1D,oranges,oranges,True,640
A13OOAT2ORKH6V:3EWIJTFFVPMYW8IUWPUOOQWSVFU0E8,332,15,612245,Bunny_1_6,Bunny,categoryIgnore1D,bananas,bananas,True,749
A13OOAT2ORKH6V:3EWIJTFFVPMYW8IUWPUOOQWSVFU0E8,333,1,614581,GreenMonster_3_1,GreenMonster,category1D,grilled_cheese,grilled_cheese,True,1232
A13OOAT2ORKH6V:3EWIJTFFVPMYW8IUWPUOOQWSVFU0E8,334,2,616575,GreenMonster_6_1,GreenMonster,category1D,grilled_cheese,grilled_cheese,True,558
A13OOAT2ORKH6V:3EWIJTFFVPMYW8IUWPUOOQWSVFU0E8,335,3,617891,GreenMonster_1_1,GreenMonster,category1D,tacos,tacos,True,749
A13OOAT2ORKH6V:3EWIJTFFVPMYW8IUWPUOOQWSVFU0E8,336,4,619397,GreenMonster_5_1,GreenMonster,category1D,grilled_cheese,grilled_cheese,True,1239
A13OOAT2ORKH6V:3EWIJTFFVPMYW8IUWPUOOQWSVFU0E8,337,5,621393,GreenMonster_2_1,GreenMonster,category1D,tacos,grilled_cheese,False,892
A13OOAT2ORKH6V:3EWIJTFFVPMYW8IUWPUOOQWSVFU0E8,338,6,623547,GreenMonster_5_1,GreenMonster,category1D,grilled_cheese,tacos,False,576
A13OOAT2ORKH6V:3EWIJTFFVPMYW8IUWPUOOQWSVFU0E8,339,7,625380,GreenMonster_2_1,GreenMonster,category1D,tacos,grilled_cheese,False,972
A13OOAT2ORKH6V:3EWIJTFFVPMYW8IUWPUOOQWSVFU0E8,340,8,627608,GreenMonster_5_1,GreenMonster,category1D,grilled_cheese,grilled_cheese,True,1083
A13OOAT2ORKH6V:3EWIJTFFVPMYW8IUWPUOOQWSVFU0E8,341,9,629450,GreenMonster_5_1,GreenMonster,category1D,grilled_cheese,grilled_cheese,True,539
A13OOAT2ORKH6V:3EWIJTFFVPMYW8IUWPUOOQWSVFU0E8,342,10,630746,GreenMonster_1_1,GreenMonster,category1D,tacos,tacos,True,795
A13OOAT2ORKH6V:3EWIJTFFVPMYW8IUWPUOOQWSVFU0E8,343,11,632300,GreenMonster_3_1,GreenMonster,category1D,grilled_cheese,grilled_cheese,True,838
A13OOAT2ORKH6V:3EWIJTFFVPMYW8IUWPUOOQWSVFU0E8,344,12,633900,GreenMonster_4_1,GreenMonster,category1D,grilled_cheese,grilled_cheese,True,1114
A13OOAT2ORKH6V:3EWIJTFFVPMYW8IUWPUOOQWSVFU0E8,345,13,635775,GreenMonster_5_1,GreenMonster,category1D,grilled_cheese,grilled_cheese,True,694
A13OOAT2ORKH6V:3EWIJTFFVPMYW8IUWPUOOQWSVFU0E8,346,14,637228,GreenMonster_2_1,GreenMonster,category1D,tacos,tacos,True,928
A13OOAT2ORKH6V:3EWIJTFFVPMYW8IUWPUOOQWSVFU0E8,347,1,639315,Bear_1_1,Bear,category2D,pancakes,pancakes,True,2711
A13OOAT2ORKH6V:3EWIJTFFVPMYW8IUWPUOOQWSVFU0E8,348,2,642782,Bear_4_2,Bear,category2D,pancakes,waffles,False,849
A13OOAT2ORKH6V:3EWIJTFFVPMYW8IUWPUOOQWSVFU0E8,349,3,644891,Bear_5_5,Bear,category2D,waffles,waffles,True,1057
A13OOAT2ORKH6V:3EWIJTFFVPMYW8IUWPUOOQWSVFU0E8,350,4,646707,Bear_3_4,Bear,category2D,pancakes,waffles,False,756
A13OOAT2ORKH6V:3EWIJTFFVPMYW8IUWPUOOQWSVFU0E8,351,5,648719,Bear_5_6,Bear,category2D,waffles,waffles,True,582
A13OOAT2ORKH6V:3EWIJTFFVPMYW8IUWPUOOQWSVFU0E8,352,6,650063,Bear_2_4,Bear,category2D,pancakes,pancakes,True,873
A13OOAT2ORKH6V:3EWIJTFFVPMYW8IUWPUOOQWSVFU0E8,353,7,651697,Bear_6_2,Bear,category2D,waffles,waffles,True,874
A13OOAT2ORKH6V:3EWIJTFFVPMYW8IUWPUOOQWSVFU0E8,354,8,653328,Bear_1_3,Bear,category2D,pancakes,pancakes,True,1321
A13OOAT2ORKH6V:3EWIJTFFVPMYW8IUWPUOOQWSVFU0E8,355,9,655407,Bear_1_3,Bear,category2D,pancakes,pancakes,True,764
A13OOAT2ORKH6V:3EWIJTFFVPMYW8IUWPUOOQWSVFU0E8,356,10,656930,Bear_2_2,Bear,category2D,pancakes,pancakes,True,830
A13OOAT2ORKH6V:3EWIJTFFVPMYW8IUWPUOOQWSVFU0E8,357,11,658521,Bear_2_2,Bear,category2D,pancakes,pancakes,True,732
A13OOAT2ORKH6V:3EWIJTFFVPMYW8IUWPUOOQWSVFU0E8,358,12,660011,Bear_4_4,Bear,category2D,pancakes,waffles,False,1095
A13OOAT2ORKH6V:3EWIJTFFVPMYW8IUWPUOOQWSVFU0E8,359,13,662367,Bear_1_5,Bear,category2D,waffles,waffles,True,1334
A13OOAT2ORKH6V:3EWIJTFFVPMYW8IUWPUOOQWSVFU0E8,360,14,664465,Bear_1_4,Bear,category2D,pancakes,pancakes,True,894
A13OOAT2ORKH6V:3EWIJTFFVPMYW8IUWPUOOQWSVFU0E8,361,15,666116,Bear_5_1,Bear,category2D,waffles,waffles,True,1860
A13OOAT2ORKH6V:3EWIJTFFVPMYW8IUWPUOOQWSVFU0E8,362,16,668733,Bear_4_3,Bear,category2D,pancakes,waffles,False,766
A13OOAT2ORKH6V:3EWIJTFFVPMYW8IUWPUOOQWSVFU0E8,363,17,670757,Bear_2_3,Bear,category2D,pancakes,pancakes,True,1307
A13OOAT2ORKH6V:3EWIJTFFVPMYW8IUWPUOOQWSVFU0E8,364,18,672820,Bear_3_3,Bear,category2D,pancakes,pancakes,True,811
A13OOAT2ORKH6V:3EWIJTFFVPMYW8IUWPUOOQWSVFU0E8,365,19,674388,Bear_2_4,Bear,category2D,pancakes,pancakes,True,1103
A13OOAT2ORKH6V:3EWIJTFFVPMYW8IUWPUOOQWSVFU0E8,366,20,676255,Bear_6_5,Bear,category2D,waffles,waffles,True,691
A13OOAT2ORKH6V:3EWIJTFFVPMYW8IUWPUOOQWSVFU0E8,367,21,677705,Bear_5_5,Bear,category2D,waffles,waffles,True,598
A13OOAT2ORKH6V:3EWIJTFFVPMYW8IUWPUOOQWSVFU0E8,368,22,679060,Bear_4_5,Bear,category2D,waffles,waffles,True,1576
A13OOAT2ORKH6V:3EWIJTFFVPMYW8IUWPUOOQWSVFU0E8,369,23,681397,Bear_4_5,Bear,category2D,waffles,waffles,True,611
A13OOAT2ORKH6V:3EWIJTFFVPMYW8IUWPUOOQWSVFU0E8,370,24,682767,Bear_5_4,Bear,category2D,waffles,waffles,True,959
A13OOAT2ORKH6V:3EWIJTFFVPMYW8IUWPUOOQWSVFU0E8,371,25,684489,Bear_1_5,Bear,category2D,waffles,waffles,True,1135
A13OOAT2ORKH6V:3EWIJTFFVPMYW8IUWPUOOQWSVFU0E8,372,26,686382,Bear_2_2,Bear,category2D,pancakes,pancakes,True,877
A13OOAT2ORKH6V:3EWIJTFFVPMYW8IUWPUOOQWSVFU0E8,373,1,689445,GreenMonster_5_1,GreenMonster,category1D,grilled_cheese,grilled_cheese,True,1736
A13OOAT2ORKH6V:3EWIJTFFVPMYW8IUWPUOOQWSVFU0E8,374,2,691938,GreenMonster_3_1,GreenMonster,category1D,grilled_cheese,grilled_cheese,True,1194
A13OOAT2ORKH6V:3EWIJTFFVPMYW8IUWPUOOQWSVFU0E8,375,3,693890,GreenMonster_1_1,GreenMonster,category1D,tacos,tacos,True,1949
A13OOAT2ORKH6V:3EWIJTFFVPMYW8IUWPUOOQWSVFU0E8,376,4,696599,GreenMonster_4_1,GreenMonster,category1D,grilled_cheese,grilled_cheese,True,883
A13OOAT2ORKH6V:3EWIJTFFVPMYW8IUWPUOOQWSVFU0E8,377,5,698241,GreenMonster_1_1,GreenMonster,category1D,tacos,tacos,True,2870
A13OOAT2ORKH6V:3EWIJTFFVPMYW8IUWPUOOQWSVFU0E8,378,6,701865,GreenMonster_6_1,GreenMonster,category1D,grilled_cheese,grilled_cheese,True,1362
A13OOAT2ORKH6V:3EWIJTFFVPMYW8IUWPUOOQWSVFU0E8,379,1,704955,Bunny_2_4,Bunny,categoryIgnore1D,bananas,bananas,True,1301
A13OOAT2ORKH6V:3EWIJTFFVPMYW8IUWPUOOQWSVFU0E8,380,2,707013,Bunny_5_3,Bunny,categoryIgnore1D,oranges,oranges,True,608
A13OOAT2ORKH6V:3EWIJTFFVPMYW8IUWPUOOQWSVFU0E8,381,3,708377,Bunny_1_1,Bunny,categoryIgnore1D,bananas,bananas,True,744
A13OOAT2ORKH6V:3EWIJTFFVPMYW8IUWPUOOQWSVFU0E8,382,4,709881,Bunny_3_6,Bunny,categoryIgnore1D,bananas,bananas,True,891
A13OOAT2ORKH6V:3EWIJTFFVPMYW8IUWPUOOQWSVFU0E8,383,5,711529,Bunny_6_4,Bunny,categoryIgnore1D,oranges,oranges,True,848
A13OOAT2ORKH6V:3EWIJTFFVPMYW8IUWPUOOQWSVFU0E8,384,1,714677,Squid_5_2,Squid,categoryRandom,carrot,broccoli,False,3400
A13OOAT2ORKH6V:3EWIJTFFVPMYW8IUWPUOOQWSVFU0E8,385,2,719336,Squid_4_4,Squid,categoryRandom,carrot,carrot,True,1058
A13OOAT2ORKH6V:3EWIJTFFVPMYW8IUWPUOOQWSVFU0E8,386,3,721153,Squid_5_2,Squid,categoryRandom,carrot,broccoli,False,1198
A13OOAT2ORKH6V:3EWIJTFFVPMYW8IUWPUOOQWSVFU0E8,387,4,723608,Squid_6_6,Squid,categoryRandom,carrot,carrot,True,912
A13OOAT2ORKH6V:3EWIJTFFVPMYW8IUWPUOOQWSVFU0E8,388,5,725281,Squid_1_2,Squid,categoryRandom,carrot,broccoli,False,1158
A13OOAT2ORKH6V:3EWIJTFFVPMYW8IUWPUOOQWSVFU0E8,389,6,727694,Squid_3_5,Squid,categoryRandom,carrot,carrot,True,433
A13OOAT2ORKH6V:3EWIJTFFVPMYW8IUWPUOOQWSVFU0E8,390,7,728884,Squid_4_3,Squid,categoryRandom,broccoli,carrot,False,480
A13OOAT2ORKH6V:3EWIJTFFVPMYW8IUWPUOOQWSVFU0E8,391,8,730624,Squid_1_2,Squid,categoryRandom,carrot,carrot,True,1110
A13OOAT2ORKH6V:3EWIJTFFVPMYW8IUWPUOOQWSVFU0E8,392,9,732496,Squid_2_6,Squid,categoryRandom,carrot,carrot,True,1893
A13OOAT2ORKH6V:3EWIJTFFVPMYW8IUWPUOOQWSVFU0E8,393,10,735146,Squid_6_4,Squid,categoryRandom,broccoli,carrot,False,990
A13OOAT2ORKH6V:3EWIJTFFVPMYW8IUWPUOOQWSVFU0E8,394,11,737395,Squid_2_4,Squid,categoryRandom,carrot,carrot,True,850
A13OOAT2ORKH6V:3EWIJTFFVPMYW8IUWPUOOQWSVFU0E8,395,12,739006,Squid_5_1,Squid,categoryRandom,carrot,broccoli,False,1113
A13OOAT2ORKH6V:3EWIJTFFVPMYW8IUWPUOOQWSVFU0E8,396,13,741382,Squid_3_2,Squid,categoryRandom,broccoli,carrot,False,424
A13OOAT2ORKH6V:3EWIJTFFVPMYW8IUWPUOOQWSVFU0E8,397,14,743063,Squid_6_4,Squid,categoryRandom,broccoli,broccoli,True,1489
A13OOAT2ORKH6V:3EWIJTFFVPMYW8IUWPUOOQWSVFU0E8,398,15,745313,Squid_2_3,Squid,categoryRandom,carrot,broccoli,False,567
A13OOAT2ORKH6V:3EWIJTFFVPMYW8IUWPUOOQWSVFU0E8,399,16,747141,Squid_3_5,Squid,categoryRandom,carrot,broccoli,False,973
A13OOAT2ORKH6V:3EWIJTFFVPMYW8IUWPUOOQWSVFU0E8,400,17,749376,Squid_2_2,Squid,categoryRandom,broccoli,broccoli,True,471
A13OOAT2ORKH6V:3EWIJTFFVPMYW8IUWPUOOQWSVFU0E8,401,18,750607,Squid_4_1,Squid,categoryRandom,carrot,broccoli,False,590
A13OOAT2ORKH6V:3EWIJTFFVPMYW8IUWPUOOQWSVFU0E8,402,19,752454,Squid_4_5,Squid,categoryRandom,broccoli,broccoli,True,528
A13OOAT2ORKH6V:3EWIJTFFVPMYW8IUWPUOOQWSVFU0E8,403,20,753741,Squid_2_6,Squid,categoryRandom,carrot,broccoli,False,493
A13OOAT2ORKH6V:3EWIJTFFVPMYW8IUWPUOOQWSVFU0E8,404,21,755490,Squid_1_2,Squid,categoryRandom,carrot,broccoli,False,537
A13OOAT2ORKH6V:3EWIJTFFVPMYW8IUWPUOOQWSVFU0E8,405,22,757285,Squid_4_3,Squid,categoryRandom,broccoli,carrot,False,640
A13OOAT2ORKH6V:3EWIJTFFVPMYW8IUWPUOOQWSVFU0E8,406,23,759182,Squid_5_6,Squid,categoryRandom,carrot,carrot,True,4668
A13OOAT2ORKH6V:3EWIJTFFVPMYW8IUWPUOOQWSVFU0E8,407,24,764608,Squid_3_5,Squid,categoryRandom,carrot,carrot,True,141
A13OOAT2ORKH6V:3EWIJTFFVPMYW8IUWPUOOQWSVFU0E8,408,25,765507,Squid_4_4,Squid,categoryRandom,carrot,carrot,True,120
A13OOAT2ORKH6V:3EWIJTFFVPMYW8IUWPUOOQWSVFU0E8,409,26,766389,Squid_3_2,Squid,categoryRandom,broccoli,carrot,False,161
A13OOAT2ORKH6V:3EWIJTFFVPMYW8IUWPUOOQWSVFU0E8,410,27,767812,Squid_5_1,Squid,categoryRandom,carrot,broccoli,False,125
A13OOAT2ORKH6V:3EWIJTFFVPMYW8IUWPUOOQWSVFU0E8,411,28,769196,Squid_4_5,Squid,categoryRandom,broccoli,carrot,False,721
A13OOAT2ORKH6V:3EWIJTFFVPMYW8IUWPUOOQWSVFU0E8,412,29,771176,Squid_4_1,Squid,categoryRandom,carrot,broccoli,False,2266
A13OOAT2ORKH6V:3EWIJTFFVPMYW8IUWPUOOQWSVFU0E8,413,30,774698,Squid_1_4,Squid,categoryRandom,broccoli,broccoli,True,1414
A13OOAT2ORKH6V:3EWIJTFFVPMYW8IUWPUOOQWSVFU0E8,414,31,776873,Squid_2_6,Squid,categoryRandom,carrot,carrot,True,9395
A13OOAT2ORKH6V:3EWIJTFFVPMYW8IUWPUOOQWSVFU0E8,415,32,787031,Squid_5_5,Squid,categoryRandom,broccoli,carrot,False,459
A13OOAT2ORKH6V:3EWIJTFFVPMYW8IUWPUOOQWSVFU0E8,416,33,788749,Squid_5_2,Squid,categoryRandom,carrot,broccoli,False,173
A13OOAT2ORKH6V:3EWIJTFFVPMYW8IUWPUOOQWSVFU0E8,417,34,790183,Squid_5_6,Squid,categoryRandom,carrot,carrot,True,239
A13OOAT2ORKH6V:3EWIJTFFVPMYW8IUWPUOOQWSVFU0E8,418,35,791177,Squid_5_6,Squid,categoryRandom,carrot,carrot,True,865
A13OOAT2ORKH6V:3EWIJTFFVPMYW8IUWPUOOQWSVFU0E8,419,36,792801,Squid_4_2,Squid,categoryRandom,broccoli,carrot,False,636
A13OOAT2ORKH6V:3EWIJTFFVPMYW8IUWPUOOQWSVFU0E8,420,37,794699,Squid_2_5,Squid,categoryRandom,broccoli,broccoli,True,231
A13OOAT2ORKH6V:3EWIJTFFVPMYW8IUWPUOOQWSVFU0E8,421,38,795689,Squid_4_1,Squid,categoryRandom,carrot,carrot,True,928
A13OOAT2ORKH6V:3EWIJTFFVPMYW8IUWPUOOQWSVFU0E8,422,39,797375,Squid_5_3,Squid,categoryRandom,carrot,broccoli,False,517
A13OOAT2ORKH6V:3EWIJTFFVPMYW8IUWPUOOQWSVFU0E8,423,40,799149,Squid_5_3,Squid,categoryRandom,carrot,carrot,True,161
A13OOAT2ORKH6V:3EWIJTFFVPMYW8IUWPUOOQWSVFU0E8,424,41,800067,Squid_1_4,Squid,categoryRandom,broccoli,carrot,False,690
A13OOAT2ORKH6V:3EWIJTFFVPMYW8IUWPUOOQWSVFU0E8,425,42,802012,Squid_4_5,Squid,categoryRandom,broccoli,broccoli,True,237
A13OOAT2ORKH6V:3EWIJTFFVPMYW8IUWPUOOQWSVFU0E8,426,43,803013,Squid_5_6,Squid,categoryRandom,carrot,broccoli,False,414
A13OOAT2ORKH6V:3EWIJTFFVPMYW8IUWPUOOQWSVFU0E8,427,44,804683,Squid_4_2,Squid,categoryRandom,broccoli,carrot,False,702
A13OOAT2ORKH6V:3EWIJTFFVPMYW8IUWPUOOQWSVFU0E8,428,1,807888,GreenMonster_3_1,GreenMonster,category1D,grilled_cheese,grilled_cheese,True,4232
A13OOAT2ORKH6V:3EWIJTFFVPMYW8IUWPUOOQWSVFU0E8,429,1,813416,Bear_4_2,Bear,category2D,pancakes,pancakes,True,3421
A13OOAT2ORKH6V:3EWIJTFFVPMYW8IUWPUOOQWSVFU0E8,430,2,817595,Bear_2_1,Bear,category2D,pancakes,pancakes,True,1178
A13OOAT2ORKH6V:3EWIJTFFVPMYW8IUWPUOOQWSVFU0E8,431,3,819532,Bear_1_3,Bear,category2D,pancakes,pancakes,True,981
A13OOAT2ORKH6V:3EWIJTFFVPMYW8IUWPUOOQWSVFU0E8,432,4,821274,Bear_1_1,Bear,category2D,pancakes,pancakes,True,948
A13OOAT2ORKH6V:3EWIJTFFVPMYW8IUWPUOOQWSVFU0E8,433,5,822986,Bear_6_3,Bear,category2D,waffles,waffles,True,842
A13OOAT2ORKH6V:3EWIJTFFVPMYW8IUWPUOOQWSVFU0E8,434,6,824586,Bear_3_3,Bear,category2D,pancakes,waffles,False,1049
A13OOAT2ORKH6V:3EWIJTFFVPMYW8IUWPUOOQWSVFU0E8,435,7,826894,Bear_3_1,Bear,category2D,pancakes,pancakes,True,766
A13OOAT2ORKH6V:3EWIJTFFVPMYW8IUWPUOOQWSVFU0E8,436,8,828415,Bear_5_3,Bear,category2D,waffles,waffles,True,917
A13OOAT2ORKH6V:3EWIJTFFVPMYW8IUWPUOOQWSVFU0E8,437,1,830712,Bunny_1_4,Bunny,categoryIgnore1D,bananas,bananas,True,2303
A13OOAT2ORKH6V:3EWIJTFFVPMYW8IUWPUOOQWSVFU0E8,438,2,833774,Bunny_1_4,Bunny,categoryIgnore1D,bananas,bananas,True,1228
A13OOAT2ORKH6V:3EWIJTFFVPMYW8IUWPUOOQWSVFU0E8,439,3,835762,Bunny_6_3,Bunny,categoryIgnore1D,oranges,oranges,True,838
A13OOAT2ORKH6V:3EWIJTFFVPMYW8IUWPUOOQWSVFU0E8,440,1,837950,Squid_4_5,Squid,categoryRandom,broccoli,broccoli,True,3503
A13OOAT2ORKH6V:3EWIJTFFVPMYW8IUWPUOOQWSVFU0E8,441,2,842211,Squid_2_2,Squid,categoryRandom,broccoli,broccoli,True,832
A13OOAT2ORKH6V:3EWIJTFFVPMYW8IUWPUOOQWSVFU0E8,442,3,843806,Squid_4_1,Squid,categoryRandom,carrot,broccoli,False,1082
A13OOAT2ORKH6V:3EWIJTFFVPMYW8IUWPUOOQWSVFU0E8,443,4,846146,Squid_5_5,Squid,categoryRandom,broccoli,broccoli,True,707
A13OOAT2ORKH6V:3EWIJTFFVPMYW8IUWPUOOQWSVFU0E8,444,5,847615,Squid_2_2,Squid,categoryRandom,broccoli,carrot,False,1780
A13OOAT2ORKH6V:3EWIJTFFVPMYW8IUWPUOOQWSVFU0E8,445,6,850653,Squid_4_6,Squid,categoryRandom,broccoli,broccoli,True,1360
A13OOAT2ORKH6V:3EWIJTFFVPMYW8IUWPUOOQWSVFU0E8,446,7,852771,Squid_2_5,Squid,categoryRandom,broccoli,carrot,False,2624
A13OOAT2ORKH6V:3EWIJTFFVPMYW8IUWPUOOQWSVFU0E8,447,8,856654,Squid_2_4,Squid,categoryRandom,carrot,broccoli,False,661
A13OOAT2ORKH6V:3EWIJTFFVPMYW8IUWPUOOQWSVFU0E8,448,9,858573,Squid_1_2,Squid,categoryRandom,carrot,broccoli,False,857
A13OOAT2ORKH6V:3EWIJTFFVPMYW8IUWPUOOQWSVFU0E8,449,10,860690,Squid_4_4,Squid,categoryRandom,carrot,carrot,True,5205
A13OOAT2ORKH6V:3EWIJTFFVPMYW8IUWPUOOQWSVFU0E8,450,11,866651,Squid_6_4,Squid,categoryRandom,broccoli,carrot,False,6122
A13OOAT2ORKH6V:3EWIJTFFVPMYW8IUWPUOOQWSVFU0E8,451,12,874032,Squid_2_5,Squid,categoryRandom,broccoli,broccoli,True,593
A13OOAT2ORKH6V:3EWIJTFFVPMYW8IUWPUOOQWSVFU0E8,452,13,875385,Squid_6_3,Squid,categoryRandom,carrot,broccoli,False,523
A13OOAT2ORKH6V:3EWIJTFFVPMYW8IUWPUOOQWSVFU0E8,453,14,877167,Squid_3_3,Squid,categoryRandom,broccoli,broccoli,True,488
A13OOAT2ORKH6V:3EWIJTFFVPMYW8IUWPUOOQWSVFU0E8,454,15,878417,Squid_2_5,Squid,categoryRandom,broccoli,broccoli,True,461
A13OOAT2ORKH6V:3EWIJTFFVPMYW8IUWPUOOQWSVFU0E8,455,16,879641,Squid_5_4,Squid,categoryRandom,carrot,carrot,True,894
A13OOAT2ORKH6V:3EWIJTFFVPMYW8IUWPUOOQWSVFU0E8,456,17,881297,Squid_1_4,Squid,categoryRandom,broccoli,broccoli,True,978
A13OOAT2ORKH6V:3EWIJTFFVPMYW8IUWPUOOQWSVFU0E8,457,18,883036,Squid_1_6,Squid,categoryRandom,carrot,broccoli,False,1122
A13OOAT2ORKH6V:3EWIJTFFVPMYW8IUWPUOOQWSVFU0E8,458,19,885421,Squid_2_2,Squid,categoryRandom,broccoli,carrot,False,597
A13OOAT2ORKH6V:3EWIJTFFVPMYW8IUWPUOOQWSVFU0E8,459,20,887279,Squid_5_3,Squid,categoryRandom,carrot,broccoli,False,606
A13OOAT2ORKH6V:3EWIJTFFVPMYW8IUWPUOOQWSVFU0E8,460,21,889147,Squid_6_4,Squid,categoryRandom,broccoli,carrot,False,883
A13OOAT2ORKH6V:3EWIJTFFVPMYW8IUWPUOOQWSVFU0E8,461,22,891290,Squid_6_3,Squid,categoryRandom,carrot,carrot,True,595
A13OOAT2ORKH6V:3EWIJTFFVPMYW8IUWPUOOQWSVFU0E8,462,23,892645,Squid_2_2,Squid,categoryRandom,broccoli,broccoli,True,895
A13OOAT2ORKH6V:3EWIJTFFVPMYW8IUWPUOOQWSVFU0E8,463,24,894300,Squid_6_2,Squid,categoryRandom,carrot,carrot,True,1242
A13OOAT2ORKH6V:3EWIJTFFVPMYW8IUWPUOOQWSVFU0E8,464,25,896300,Squid_2_3,Squid,categoryRandom,carrot,broccoli,False,983
A13OOAT2ORKH6V:3EWIJTFFVPMYW8IUWPUOOQWSVFU0E8,465,26,898540,Squid_6_6,Squid,categoryRandom,carrot,carrot,True,971
A13OOAT2ORKH6V:3EWIJTFFVPMYW8IUWPUOOQWSVFU0E8,466,27,900270,Squid_4_6,Squid,categoryRandom,broccoli,carrot,False,793
A13OOAT2ORKH6V:3EWIJTFFVPMYW8IUWPUOOQWSVFU0E8,467,28,902325,Squid_4_2,Squid,categoryRandom,broccoli,broccoli,True,1026
A1GXFMAC759VRM:3DZQRBDBSMUVNJM9G7WCF5YEZIU3SE,1,1,2311,GreenMonster_5_2,GreenMonster,category2D,oranges,bananas,False,2371
A1GXFMAC759VRM:3DZQRBDBSMUVNJM9G7WCF5YEZIU3SE,2,2,5944,GreenMonster_4_1,GreenMonster,category2D,bananas,oranges,False,670
A1GXFMAC759VRM:3DZQRBDBSMUVNJM9G7WCF5YEZIU3SE,3,3,7877,GreenMonster_6_4,GreenMonster,category2D,oranges,oranges,True,3356
A1GXFMAC759VRM:3DZQRBDBSMUVNJM9G7WCF5YEZIU3SE,4,4,11992,GreenMonster_3_6,GreenMonster,category2D,oranges,oranges,True,528
A1GXFMAC759VRM:3DZQRBDBSMUVNJM9G7WCF5YEZIU3SE,5,5,13281,GreenMonster_5_1,GreenMonster,category2D,oranges,oranges,True,2374
A1GXFMAC759VRM:3DZQRBDBSMUVNJM9G7WCF5YEZIU3SE,6,6,16416,GreenMonster_1_2,GreenMonster,category2D,bananas,bananas,True,1005
A1GXFMAC759VRM:3DZQRBDBSMUVNJM9G7WCF5YEZIU3SE,7,7,18177,GreenMonster_3_2,GreenMonster,category2D,bananas,oranges,False,757
A1GXFMAC759VRM:3DZQRBDBSMUVNJM9G7WCF5YEZIU3SE,8,8,20192,GreenMonster_1_6,GreenMonster,category2D,oranges,bananas,False,2150
A1GXFMAC759VRM:3DZQRBDBSMUVNJM9G7WCF5YEZIU3SE,9,9,23599,GreenMonster_3_2,GreenMonster,category2D,bananas,oranges,False,1049
A1GXFMAC759VRM:3DZQRBDBSMUVNJM9G7WCF5YEZIU3SE,10,10,25906,GreenMonster_6_6,GreenMonster,category2D,oranges,oranges,True,1359
A1GXFMAC759VRM:3DZQRBDBSMUVNJM9G7WCF5YEZIU3SE,11,11,28025,GreenMonster_1_2,GreenMonster,category2D,bananas,oranges,False,926
A1GXFMAC759VRM:3DZQRBDBSMUVNJM9G7WCF5YEZIU3SE,12,12,30210,GreenMonster_3_2,GreenMonster,category2D,bananas,oranges,False,2212
A1GXFMAC759VRM:3DZQRBDBSMUVNJM9G7WCF5YEZIU3SE,13,13,33677,GreenMonster_4_3,GreenMonster,category2D,bananas,oranges,False,2668
A1GXFMAC759VRM:3DZQRBDBSMUVNJM9G7WCF5YEZIU3SE,14,14,37603,GreenMonster_1_2,GreenMonster,category2D,bananas,bananas,True,1560
A1GXFMAC759VRM:3DZQRBDBSMUVNJM9G7WCF5YEZIU3SE,15,15,39919,GreenMonster_1_6,GreenMonster,category2D,oranges,bananas,False,825
A1GXFMAC759VRM:3DZQRBDBSMUVNJM9G7WCF5YEZIU3SE,16,16,42003,GreenMonster_1_1,GreenMonster,category2D,bananas,bananas,True,1516
A1GXFMAC759VRM:3DZQRBDBSMUVNJM9G7WCF5YEZIU3SE,17,17,44278,GreenMonster_2_3,GreenMonster,category2D,bananas,bananas,True,1189
A1GXFMAC759VRM:3DZQRBDBSMUVNJM9G7WCF5YEZIU3SE,18,18,46230,GreenMonster_6_2,GreenMonster,category2D,oranges,oranges,True,2909
A1GXFMAC759VRM:3DZQRBDBSMUVNJM9G7WCF5YEZIU3SE,19,19,49898,GreenMonster_2_4,GreenMonster,category2D,bananas,bananas,True,1043
A1GXFMAC759VRM:3DZQRBDBSMUVNJM9G7WCF5YEZIU3SE,20,20,51700,GreenMonster_1_3,GreenMonster,category2D,bananas,bananas,True,949
A1GXFMAC759VRM:3DZQRBDBSMUVNJM9G7WCF5YEZIU3SE,21,21,53410,GreenMonster_6_6,GreenMonster,category2D,oranges,oranges,True,884
A1GXFMAC759VRM:3DZQRBDBSMUVNJM9G7WCF5YEZIU3SE,22,22,55051,GreenMonster_2_3,GreenMonster,category2D,bananas,bananas,True,671
A1GXFMAC759VRM:3DZQRBDBSMUVNJM9G7WCF5YEZIU3SE,23,23,56481,GreenMonster_2_3,GreenMonster,category2D,bananas,bananas,True,725
A1GXFMAC759VRM:3DZQRBDBSMUVNJM9G7WCF5YEZIU3SE,24,24,57961,GreenMonster_3_2,GreenMonster,category2D,bananas,oranges,False,1079
A1GXFMAC759VRM:3DZQRBDBSMUVNJM9G7WCF5YEZIU3SE,25,25,60296,GreenMonster_4_6,GreenMonster,category2D,oranges,bananas,False,1311
A1GXFMAC759VRM:3DZQRBDBSMUVNJM9G7WCF5YEZIU3SE,26,26,62864,GreenMonster_5_2,GreenMonster,category2D,oranges,bananas,False,1241
A1GXFMAC759VRM:3DZQRBDBSMUVNJM9G7WCF5YEZIU3SE,27,27,65367,GreenMonster_4_1,GreenMonster,category2D,bananas,oranges,False,1010
A1GXFMAC759VRM:3DZQRBDBSMUVNJM9G7WCF5YEZIU3SE,28,28,67634,GreenMonster_5_4,GreenMonster,category2D,oranges,bananas,False,2860
A1GXFMAC759VRM:3DZQRBDBSMUVNJM9G7WCF5YEZIU3SE,29,29,71753,GreenMonster_1_6,GreenMonster,category2D,oranges,oranges,True,1713
A1GXFMAC759VRM:3DZQRBDBSMUVNJM9G7WCF5YEZIU3SE,30,30,74228,GreenMonster_3_2,GreenMonster,category2D,bananas,bananas,True,2512
A1GXFMAC759VRM:3DZQRBDBSMUVNJM9G7WCF5YEZIU3SE,31,31,77500,GreenMonster_4_2,GreenMonster,category2D,bananas,bananas,True,732
A1GXFMAC759VRM:3DZQRBDBSMUVNJM9G7WCF5YEZIU3SE,32,32,78992,GreenMonster_1_6,GreenMonster,category2D,oranges,oranges,True,936
A1GXFMAC759VRM:3DZQRBDBSMUVNJM9G7WCF5YEZIU3SE,33,33,80683,GreenMonster_1_4,GreenMonster,category2D,bananas,oranges,False,1063
A1GXFMAC759VRM:3DZQRBDBSMUVNJM9G7WCF5YEZIU3SE,34,34,83003,GreenMonster_4_2,GreenMonster,category2D,bananas,bananas,True,1427
A1GXFMAC759VRM:3DZQRBDBSMUVNJM9G7WCF5YEZIU3SE,35,35,85191,GreenMonster_5_4,GreenMonster,category2D,oranges,bananas,False,1335
A1GXFMAC759VRM:3DZQRBDBSMUVNJM9G7WCF5YEZIU3SE,36,36,87783,GreenMonster_1_5,GreenMonster,category2D,oranges,bananas,False,1045
A1GXFMAC759VRM:3DZQRBDBSMUVNJM9G7WCF5YEZIU3SE,37,37,90083,GreenMonster_6_4,GreenMonster,category2D,oranges,oranges,True,1045
A1GXFMAC759VRM:3DZQRBDBSMUVNJM9G7WCF5YEZIU3SE,38,38,91890,GreenMonster_4_1,GreenMonster,category2D,bananas,oranges,False,831
A1GXFMAC759VRM:3DZQRBDBSMUVNJM9G7WCF5YEZIU3SE,39,39,93980,GreenMonster_1_3,GreenMonster,category2D,bananas,bananas,True,2018
A1GXFMAC759VRM:3DZQRBDBSMUVNJM9G7WCF5YEZIU3SE,40,40,96758,GreenMonster_2_2,GreenMonster,category2D,bananas,bananas,True,1351
A1GXFMAC759VRM:3DZQRBDBSMUVNJM9G7WCF5YEZIU3SE,41,41,98867,GreenMonster_3_3,GreenMonster,category2D,bananas,bananas,True,2282
A1GXFMAC759VRM:3DZQRBDBSMUVNJM9G7WCF5YEZIU3SE,42,42,101911,GreenMonster_4_5,GreenMonster,category2D,oranges,oranges,True,1712
A1GXFMAC759VRM:3DZQRBDBSMUVNJM9G7WCF5YEZIU3SE,43,43,104382,GreenMonster_4_4,GreenMonster,category2D,bananas,oranges,False,829
A1GXFMAC759VRM:3DZQRBDBSMUVNJM9G7WCF5YEZIU3SE,44,44,106466,GreenMonster_4_3,GreenMonster,category2D,bananas,bananas,True,918
A1GXFMAC759VRM:3DZQRBDBSMUVNJM9G7WCF5YEZIU3SE,45,45,108141,GreenMonster_5_2,GreenMonster,category2D,oranges,oranges,True,1471
A1GXFMAC759VRM:3DZQRBDBSMUVNJM9G7WCF5YEZIU3SE,46,46,110370,GreenMonster_5_6,GreenMonster,category2D,oranges,oranges,True,1214
A1GXFMAC759VRM:3DZQRBDBSMUVNJM9G7WCF5YEZIU3SE,47,47,112341,GreenMonster_6_1,GreenMonster,category2D,oranges,oranges,True,1534
A1GXFMAC759VRM:3DZQRBDBSMUVNJM9G7WCF5YEZIU3SE,48,48,114634,GreenMonster_2_6,GreenMonster,category2D,oranges,bananas,False,1357
A1GXFMAC759VRM:3DZQRBDBSMUVNJM9G7WCF5YEZIU3SE,49,1,118110,Squid_3_1,Squid,category1D,waffles,waffles,True,2764
A1GXFMAC759VRM:3DZQRBDBSMUVNJM9G7WCF5YEZIU3SE,50,2,121634,Squid_4_1,Squid,category1D,waffles,waffles,True,1468
A1GXFMAC759VRM:3DZQRBDBSMUVNJM9G7WCF5YEZIU3SE,51,3,123863,Squid_5_1,Squid,category1D,waffles,waffles,True,1082
A1GXFMAC759VRM:3DZQRBDBSMUVNJM9G7WCF5YEZIU3SE,52,4,125703,Squid_5_1,Squid,category1D,waffles,waffles,True,664
A1GXFMAC759VRM:3DZQRBDBSMUVNJM9G7WCF5YEZIU3SE,53,5,127127,Squid_6_1,Squid,category1D,waffles,waffles,True,788
A1GXFMAC759VRM:3DZQRBDBSMUVNJM9G7WCF5YEZIU3SE,54,6,128675,Squid_5_1,Squid,category1D,waffles,waffles,True,624
A1GXFMAC759VRM:3DZQRBDBSMUVNJM9G7WCF5YEZIU3SE,55,7,130057,Squid_6_1,Squid,category1D,waffles,waffles,True,429
A1GXFMAC759VRM:3DZQRBDBSMUVNJM9G7WCF5YEZIU3SE,56,8,131247,Squid_6_1,Squid,category1D,waffles,waffles,True,150
A1GXFMAC759VRM:3DZQRBDBSMUVNJM9G7WCF5YEZIU3SE,57,9,132158,Squid_3_1,Squid,category1D,waffles,waffles,True,141
A1GXFMAC759VRM:3DZQRBDBSMUVNJM9G7WCF5YEZIU3SE,58,10,133058,Squid_5_1,Squid,category1D,waffles,waffles,True,365
A1GXFMAC759VRM:3DZQRBDBSMUVNJM9G7WCF5YEZIU3SE,59,11,134184,Squid_1_1,Squid,category1D,pancakes,waffles,False,125
A1GXFMAC759VRM:3DZQRBDBSMUVNJM9G7WCF5YEZIU3SE,60,12,135571,Squid_2_1,Squid,category1D,pancakes,waffles,False,422
A1GXFMAC759VRM:3DZQRBDBSMUVNJM9G7WCF5YEZIU3SE,61,13,137252,Squid_4_1,Squid,category1D,waffles,waffles,True,770
A1GXFMAC759VRM:3DZQRBDBSMUVNJM9G7WCF5YEZIU3SE,62,14,138781,Squid_6_1,Squid,category1D,waffles,waffles,True,438
A1GXFMAC759VRM:3DZQRBDBSMUVNJM9G7WCF5YEZIU3SE,63,15,139984,Squid_6_1,Squid,category1D,waffles,waffles,True,470
A1GXFMAC759VRM:3DZQRBDBSMUVNJM9G7WCF5YEZIU3SE,64,16,141214,Squid_2_1,Squid,category1D,pancakes,pancakes,True,687
A1GXFMAC759VRM:3DZQRBDBSMUVNJM9G7WCF5YEZIU3SE,65,17,142664,Squid_1_1,Squid,category1D,pancakes,pancakes,True,499
A1GXFMAC759VRM:3DZQRBDBSMUVNJM9G7WCF5YEZIU3SE,66,18,143927,Squid_1_1,Squid,category1D,pancakes,pancakes,True,536
A1GXFMAC759VRM:3DZQRBDBSMUVNJM9G7WCF5YEZIU3SE,67,19,145225,Squid_2_1,Squid,category1D,pancakes,pancakes,True,651
A1GXFMAC759VRM:3DZQRBDBSMUVNJM9G7WCF5YEZIU3SE,68,20,146634,Squid_5_1,Squid,category1D,waffles,waffles,True,527
A1GXFMAC759VRM:3DZQRBDBSMUVNJM9G7WCF5YEZIU3SE,69,21,147925,Squid_1_1,Squid,category1D,pancakes,pancakes,True,808
A1GXFMAC759VRM:3DZQRBDBSMUVNJM9G7WCF5YEZIU3SE,70,22,149488,Squid_1_1,Squid,category1D,pancakes,pancakes,True,779
A1GXFMAC759VRM:3DZQRBDBSMUVNJM9G7WCF5YEZIU3SE,71,23,151030,Squid_3_1,Squid,category1D,waffles,pancakes,False,2308
A1GXFMAC759VRM:3DZQRBDBSMUVNJM9G7WCF5YEZIU3SE,72,1,155038,Bear_6_5,Bear,categoryRandom,tacos,tacos,True,2340
A1GXFMAC759VRM:3DZQRBDBSMUVNJM9G7WCF5YEZIU3SE,73,2,158139,Bear_3_1,Bear,categoryRandom,grilled_cheese,grilled_cheese,True,942
A1GXFMAC759VRM:3DZQRBDBSMUVNJM9G7WCF5YEZIU3SE,74,3,159838,Bear_6_3,Bear,categoryRandom,tacos,tacos,True,654
A1GXFMAC759VRM:3DZQRBDBSMUVNJM9G7WCF5YEZIU3SE,75,4,161249,Bear_2_4,Bear,categoryRandom,grilled_cheese,tacos,False,894
A1GXFMAC759VRM:3DZQRBDBSMUVNJM9G7WCF5YEZIU3SE,76,5,163398,Bear_2_1,Bear,categoryRandom,tacos,grilled_cheese,False,1422
A1GXFMAC759VRM:3DZQRBDBSMUVNJM9G7WCF5YEZIU3SE,77,6,166077,Bear_3_4,Bear,categoryRandom,tacos,tacos,True,1072
A1GXFMAC759VRM:3DZQRBDBSMUVNJM9G7WCF5YEZIU3SE,78,7,167910,Bear_4_3,Bear,categoryRandom,grilled_cheese,tacos,False,1467
A1GXFMAC759VRM:3DZQRBDBSMUVNJM9G7WCF5YEZIU3SE,79,8,170639,Bear_5_6,Bear,categoryRandom,grilled_cheese,tacos,False,4146
A1GXFMAC759VRM:3DZQRBDBSMUVNJM9G7WCF5YEZIU3SE,80,9,176042,Bear_6_3,Bear,categoryRandom,tacos,grilled_cheese,False,1080
A1GXFMAC759VRM:3DZQRBDBSMUVNJM9G7WCF5YEZIU3SE,81,10,178380,Bear_3_6,Bear,categoryRandom,grilled_cheese,grilled_cheese,True,1565
A1GXFMAC759VRM:3DZQRBDBSMUVNJM9G7WCF5YEZIU3SE,82,11,180704,Bear_2_5,Bear,categoryRandom,tacos,grilled_cheese,False,1156
A1GXFMAC759VRM:3DZQRBDBSMUVNJM9G7WCF5YEZIU3SE,83,12,183119,Bear_4_4,Bear,categoryRandom,grilled_cheese,tacos,False,2053
A1GXFMAC759VRM:3DZQRBDBSMUVNJM9G7WCF5YEZIU3SE,84,13,186431,Bear_1_1,Bear,categoryRandom,tacos,grilled_cheese,False,1317
A1GXFMAC759VRM:3DZQRBDBSMUVNJM9G7WCF5YEZIU3SE,85,1,189743,Bunny_6_6,Bunny,categoryIgnore1D,broccoli,carrot,False,1140
A1GXFMAC759VRM:3DZQRBDBSMUVNJM9G7WCF5YEZIU3SE,86,2,192140,Bunny_6_4,Bunny,categoryIgnore1D,broccoli,carrot,False,1488
A1GXFMAC759VRM:3DZQRBDBSMUVNJM9G7WCF5YEZIU3SE,87,3,194886,Bunny_1_1,Bunny,categoryIgnore1D,carrot,carrot,True,1506
A1GXFMAC759VRM:3DZQRBDBSMUVNJM9G7WCF5YEZIU3SE,88,4,197151,Bunny_5_5,Bunny,categoryIgnore1D,broccoli,broccoli,True,1077
A1GXFMAC759VRM:3DZQRBDBSMUVNJM9G7WCF5YEZIU3SE,89,5,198986,Bunny_5_3,Bunny,categoryIgnore1D,broccoli,broccoli,True,1141
A1GXFMAC759VRM:3DZQRBDBSMUVNJM9G7WCF5YEZIU3SE,90,6,200885,Bunny_3_6,Bunny,categoryIgnore1D,carrot,carrot,True,1054
A1GXFMAC759VRM:3DZQRBDBSMUVNJM9G7WCF5YEZIU3SE,91,7,202695,Bunny_5_5,Bunny,categoryIgnore1D,broccoli,broccoli,True,1230
A1GXFMAC759VRM:3DZQRBDBSMUVNJM9G7WCF5YEZIU3SE,92,8,204682,Bunny_2_1,Bunny,categoryIgnore1D,carrot,carrot,True,691
A1GXFMAC759VRM:3DZQRBDBSMUVNJM9G7WCF5YEZIU3SE,93,9,206136,Bunny_6_2,Bunny,categoryIgnore1D,broccoli,broccoli,True,729
A1GXFMAC759VRM:3DZQRBDBSMUVNJM9G7WCF5YEZIU3SE,94,10,207622,Bunny_6_4,Bunny,categoryIgnore1D,broccoli,broccoli,True,1191
A1GXFMAC759VRM:3DZQRBDBSMUVNJM9G7WCF5YEZIU3SE,95,1,209964,Bear_5_5,Bear,categoryRandom,grilled_cheese,tacos,False,1588
A1GXFMAC759VRM:3DZQRBDBSMUVNJM9G7WCF5YEZIU3SE,96,2,212811,Bear_3_5,Bear,categoryRandom,tacos,grilled_cheese,False,1775
A1GXFMAC759VRM:3DZQRBDBSMUVNJM9G7WCF5YEZIU3SE,97,3,215847,Bear_1_2,Bear,categoryRandom,tacos,tacos,True,2611
A1GXFMAC759VRM:3DZQRBDBSMUVNJM9G7WCF5YEZIU3SE,98,4,219219,Bear_3_1,Bear,categoryRandom,grilled_cheese,grilled_cheese,True,3054
A1GXFMAC759VRM:3DZQRBDBSMUVNJM9G7WCF5YEZIU3SE,99,5,223034,Bear_2_5,Bear,categoryRandom,tacos,tacos,True,1259
A1GXFMAC759VRM:3DZQRBDBSMUVNJM9G7WCF5YEZIU3SE,100,6,225055,Bear_2_4,Bear,categoryRandom,grilled_cheese,tacos,False,1090
A1GXFMAC759VRM:3DZQRBDBSMUVNJM9G7WCF5YEZIU3SE,101,7,227404,Bear_1_6,Bear,categoryRandom,tacos,grilled_cheese,False,1304
A1GXFMAC759VRM:3DZQRBDBSMUVNJM9G7WCF5YEZIU3SE,102,8,229967,Bear_4_4,Bear,categoryRandom,grilled_cheese,tacos,False,2201
A1GXFMAC759VRM:3DZQRBDBSMUVNJM9G7WCF5YEZIU3SE,103,1,233921,GreenMonster_5_3,GreenMonster,category2D,oranges,bananas,False,3609
A1GXFMAC759VRM:3DZQRBDBSMUVNJM9G7WCF5YEZIU3SE,104,2,238787,GreenMonster_4_4,GreenMonster,category2D,bananas,bananas,True,1339
A1GXFMAC759VRM:3DZQRBDBSMUVNJM9G7WCF5YEZIU3SE,105,3,240883,GreenMonster_2_6,GreenMonster,category2D,oranges,oranges,True,3126
A1GXFMAC759VRM:3DZQRBDBSMUVNJM9G7WCF5YEZIU3SE,106,4,244773,GreenMonster_1_1,GreenMonster,category2D,bananas,oranges,False,1201
A1GXFMAC759VRM:3DZQRBDBSMUVNJM9G7WCF5YEZIU3SE,107,5,247234,GreenMonster_1_6,GreenMonster,category2D,oranges,oranges,True,1376
A1GXFMAC759VRM:3DZQRBDBSMUVNJM9G7WCF5YEZIU3SE,108,6,249370,GreenMonster_6_2,GreenMonster,category2D,oranges,bananas,False,2465
A1GXFMAC759VRM:3DZQRBDBSMUVNJM9G7WCF5YEZIU3SE,109,7,253097,GreenMonster_1_4,GreenMonster,category2D,bananas,oranges,False,2435
A1GXFMAC759VRM:3DZQRBDBSMUVNJM9G7WCF5YEZIU3SE,110,8,256794,GreenMonster_5_4,GreenMonster,category2D,oranges,oranges,True,1281
A1GXFMAC759VRM:3DZQRBDBSMUVNJM9G7WCF5YEZIU3SE,111,9,258838,GreenMonster_2_1,GreenMonster,category2D,bananas,bananas,True,1865
A1GXFMAC759VRM:3DZQRBDBSMUVNJM9G7WCF5YEZIU3SE,112,10,261461,GreenMonster_3_5,GreenMonster,category2D,oranges,oranges,True,1563
A1GXFMAC759VRM:3DZQRBDBSMUVNJM9G7WCF5YEZIU3SE,113,11,263783,GreenMonster_3_2,GreenMonster,category2D,bananas,bananas,True,822
A1GXFMAC759VRM:3DZQRBDBSMUVNJM9G7WCF5YEZIU3SE,114,12,265362,GreenMonster_4_2,GreenMonster,category2D,bananas,oranges,False,1042
A1GXFMAC759VRM:3DZQRBDBSMUVNJM9G7WCF5YEZIU3SE,115,13,267661,GreenMonster_1_2,GreenMonster,category2D,bananas,bananas,True,1011
A1GXFMAC759VRM:3DZQRBDBSMUVNJM9G7WCF5YEZIU3SE,116,14,269437,GreenMonster_5_5,GreenMonster,category2D,oranges,bananas,False,1033
A1GXFMAC759VRM:3DZQRBDBSMUVNJM9G7WCF5YEZIU3SE,117,15,271730,GreenMonster_2_4,GreenMonster,category2D,bananas,oranges,False,1664
A1GXFMAC759VRM:3DZQRBDBSMUVNJM9G7WCF5YEZIU3SE,118,16,274656,GreenMonster_3_5,GreenMonster,category2D,oranges,oranges,True,952
A1GXFMAC759VRM:3DZQRBDBSMUVNJM9G7WCF5YEZIU3SE,119,17,276368,GreenMonster_5_2,GreenMonster,category2D,oranges,bananas,False,2109
A1GXFMAC759VRM:3DZQRBDBSMUVNJM9G7WCF5YEZIU3SE,120,18,279741,GreenMonster_4_5,GreenMonster,category2D,oranges,oranges,True,375
A1GXFMAC759VRM:3DZQRBDBSMUVNJM9G7WCF5YEZIU3SE,121,19,280878,GreenMonster_1_6,GreenMonster,category2D,oranges,oranges,True,1843
A1GXFMAC759VRM:3DZQRBDBSMUVNJM9G7WCF5YEZIU3SE,122,20,283485,GreenMonster_4_3,GreenMonster,category2D,bananas,oranges,False,2659
A1GXFMAC759VRM:3DZQRBDBSMUVNJM9G7WCF5YEZIU3SE,123,21,287402,GreenMonster_5_2,GreenMonster,category2D,oranges,oranges,True,644
A1GXFMAC759VRM:3DZQRBDBSMUVNJM9G7WCF5YEZIU3SE,124,22,288808,GreenMonster_3_4,GreenMonster,category2D,bananas,bananas,True,1697
A1GXFMAC759VRM:3DZQRBDBSMUVNJM9G7WCF5YEZIU3SE,125,1,292310,Squid_4_1,Squid,category1D,waffles,pancakes,False,1010
A1GXFMAC759VRM:3DZQRBDBSMUVNJM9G7WCF5YEZIU3SE,126,2,294584,Squid_3_1,Squid,category1D,waffles,waffles,True,1379
A1GXFMAC759VRM:3DZQRBDBSMUVNJM9G7WCF5YEZIU3SE,127,3,296727,Squid_1_1,Squid,category1D,pancakes,pancakes,True,922
A1GXFMAC759VRM:3DZQRBDBSMUVNJM9G7WCF5YEZIU3SE,128,4,298407,Squid_3_1,Squid,category1D,waffles,pancakes,False,1477
A1GXFMAC759VRM:3DZQRBDBSMUVNJM9G7WCF5YEZIU3SE,129,5,301141,Squid_6_1,Squid,category1D,waffles,waffles,True,1159
A1GXFMAC759VRM:3DZQRBDBSMUVNJM9G7WCF5YEZIU3SE,130,6,303056,Squid_5_1,Squid,category1D,waffles,waffles,True,908
A1GXFMAC759VRM:3DZQRBDBSMUVNJM9G7WCF5YEZIU3SE,131,7,304725,Squid_3_1,Squid,category1D,waffles,waffles,True,949
A1GXFMAC759VRM:3DZQRBDBSMUVNJM9G7WCF5YEZIU3SE,132,8,306431,Squid_5_1,Squid,category1D,waffles,waffles,True,863
A1GXFMAC759VRM:3DZQRBDBSMUVNJM9G7WCF5YEZIU3SE,133,9,308066,Squid_6_1,Squid,category1D,waffles,waffles,True,547
A1GXFMAC759VRM:3DZQRBDBSMUVNJM9G7WCF5YEZIU3SE,134,10,309375,Squid_4_1,Squid,category1D,waffles,waffles,True,948
A1GXFMAC759VRM:3DZQRBDBSMUVNJM9G7WCF5YEZIU3SE,135,11,311081,Squid_1_1,Squid,category1D,pancakes,pancakes,True,1217
A1GXFMAC759VRM:3DZQRBDBSMUVNJM9G7WCF5YEZIU3SE,136,12,313055,Squid_4_1,Squid,category1D,waffles,waffles,True,1304
A1GXFMAC759VRM:3DZQRBDBSMUVNJM9G7WCF5YEZIU3SE,137,13,315122,Squid_6_1,Squid,category1D,waffles,waffles,True,1514
A1GXFMAC759VRM:3DZQRBDBSMUVNJM9G7WCF5YEZIU3SE,138,1,318215,Bear_2_3,Bear,categoryRandom,tacos,tacos,True,2529
A1GXFMAC759VRM:3DZQRBDBSMUVNJM9G7WCF5YEZIU3SE,139,2,321505,Bear_2_5,Bear,categoryRandom,tacos,tacos,True,1712
A1GXFMAC759VRM:3DZQRBDBSMUVNJM9G7WCF5YEZIU3SE,140,3,323979,Bear_4_1,Bear,categoryRandom,tacos,tacos,True,1732
A1GXFMAC759VRM:3DZQRBDBSMUVNJM9G7WCF5YEZIU3SE,141,4,326476,Bear_5_2,Bear,categoryRandom,grilled_cheese,tacos,False,2931
A1GXFMAC759VRM:3DZQRBDBSMUVNJM9G7WCF5YEZIU3SE,142,5,330666,Bear_1_1,Bear,categoryRandom,tacos,tacos,True,2107
A1GXFMAC759VRM:3DZQRBDBSMUVNJM9G7WCF5YEZIU3SE,143,6,333535,Bear_2_2,Bear,categoryRandom,grilled_cheese,tacos,False,630
A1GXFMAC759VRM:3DZQRBDBSMUVNJM9G7WCF5YEZIU3SE,144,7,335428,Bear_3_4,Bear,categoryRandom,tacos,tacos,True,785
A1GXFMAC759VRM:3DZQRBDBSMUVNJM9G7WCF5YEZIU3SE,145,8,336976,Bear_6_6,Bear,categoryRandom,grilled_cheese,tacos,False,930
A1GXFMAC759VRM:3DZQRBDBSMUVNJM9G7WCF5YEZIU3SE,146,9,339165,Bear_4_1,Bear,categoryRandom,tacos,tacos,True,1326
A1GXFMAC759VRM:3DZQRBDBSMUVNJM9G7WCF5YEZIU3SE,147,10,341255,Bear_3_5,Bear,categoryRandom,tacos,grilled_cheese,False,1497
A1GXFMAC759VRM:3DZQRBDBSMUVNJM9G7WCF5YEZIU3SE,148,11,344012,Bear_3_5,Bear,categoryRandom,tacos,tacos,True,556
A1GXFMAC759VRM:3DZQRBDBSMUVNJM9G7WCF5YEZIU3SE,149,12,345324,Bear_4_1,Bear,categoryRandom,tacos,grilled_cheese,False,1053
A1GXFMAC759VRM:3DZQRBDBSMUVNJM9G7WCF5YEZIU3SE,150,13,347639,Bear_5_6,Bear,categoryRandom,grilled_cheese,tacos,False,806
A1GXFMAC759VRM:3DZQRBDBSMUVNJM9G7WCF5YEZIU3SE,151,14,349706,Bear_1_1,Bear,categoryRandom,tacos,tacos,True,393
A1GXFMAC759VRM:3DZQRBDBSMUVNJM9G7WCF5YEZIU3SE,152,15,350856,Bear_4_4,Bear,categoryRandom,grilled_cheese,tacos,False,513
A1GXFMAC759VRM:3DZQRBDBSMUVNJM9G7WCF5YEZIU3SE,153,16,352627,Bear_6_5,Bear,categoryRandom,tacos,tacos,True,2699
A1GXFMAC759VRM:3DZQRBDBSMUVNJM9G7WCF5YEZIU3SE,154,17,356086,Bear_5_1,Bear,categoryRandom,grilled_cheese,tacos,False,1526
A1GXFMAC759VRM:3DZQRBDBSMUVNJM9G7WCF5YEZIU3SE,155,18,358873,Bear_2_6,Bear,categoryRandom,grilled_cheese,tacos,False,1433
A1GXFMAC759VRM:3DZQRBDBSMUVNJM9G7WCF5YEZIU3SE,156,1,361815,Bunny_6_6,Bunny,categoryIgnore1D,broccoli,carrot,False,1642
A1GXFMAC759VRM:3DZQRBDBSMUVNJM9G7WCF5YEZIU3SE,157,2,364715,Bunny_1_2,Bunny,categoryIgnore1D,carrot,carrot,True,875
A1GXFMAC759VRM:3DZQRBDBSMUVNJM9G7WCF5YEZIU3SE,158,3,366349,Bunny_6_1,Bunny,categoryIgnore1D,broccoli,broccoli,True,1255
A1GXFMAC759VRM:3DZQRBDBSMUVNJM9G7WCF5YEZIU3SE,159,4,368368,Bunny_2_2,Bunny,categoryIgnore1D,carrot,broccoli,False,1529
A1GXFMAC759VRM:3DZQRBDBSMUVNJM9G7WCF5YEZIU3SE,160,5,371155,Bunny_2_1,Bunny,categoryIgnore1D,carrot,carrot,True,6616
A1GXFMAC759VRM:3DZQRBDBSMUVNJM9G7WCF5YEZIU3SE,161,6,378526,Bunny_1_2,Bunny,categoryIgnore1D,carrot,carrot,True,7252
A1GXFMAC759VRM:3DZQRBDBSMUVNJM9G7WCF5YEZIU3SE,162,7,386539,Bunny_2_3,Bunny,categoryIgnore1D,carrot,carrot,True,977
A1GXFMAC759VRM:3DZQRBDBSMUVNJM9G7WCF5YEZIU3SE,163,8,388274,Bunny_3_6,Bunny,categoryIgnore1D,carrot,carrot,True,1251
A1GXFMAC759VRM:3DZQRBDBSMUVNJM9G7WCF5YEZIU3SE,164,9,390289,Bunny_1_5,Bunny,categoryIgnore1D,carrot,carrot,True,924
A1GXFMAC759VRM:3DZQRBDBSMUVNJM9G7WCF5YEZIU3SE,165,10,391973,Bunny_2_4,Bunny,categoryIgnore1D,carrot,carrot,True,785
A1GXFMAC759VRM:3DZQRBDBSMUVNJM9G7WCF5YEZIU3SE,166,11,393514,Bunny_2_1,Bunny,categoryIgnore1D,carrot,carrot,True,659
A1GXFMAC759VRM:3DZQRBDBSMUVNJM9G7WCF5YEZIU3SE,167,12,394933,Bunny_4_5,Bunny,categoryIgnore1D,broccoli,broccoli,True,1528
A1GXFMAC759VRM:3DZQRBDBSMUVNJM9G7WCF5YEZIU3SE,168,13,397223,Bunny_3_1,Bunny,categoryIgnore1D,carrot,carrot,True,1022
A1GXFMAC759VRM:3DZQRBDBSMUVNJM9G7WCF5YEZIU3SE,169,14,399005,Bunny_6_2,Bunny,categoryIgnore1D,broccoli,broccoli,True,822
A1GXFMAC759VRM:3DZQRBDBSMUVNJM9G7WCF5YEZIU3SE,170,15,400589,Bunny_3_5,Bunny,categoryIgnore1D,carrot,carrot,True,1241
A1GXFMAC759VRM:3DZQRBDBSMUVNJM9G7WCF5YEZIU3SE,171,16,402595,Bunny_6_3,Bunny,categoryIgnore1D,broccoli,broccoli,True,690
A1GXFMAC759VRM:3DZQRBDBSMUVNJM9G7WCF5YEZIU3SE,172,17,404043,Bunny_1_5,Bunny,categoryIgnore1D,carrot,carrot,True,850
A1GXFMAC759VRM:3DZQRBDBSMUVNJM9G7WCF5YEZIU3SE,173,18,405651,Bunny_4_1,Bunny,categoryIgnore1D,broccoli,broccoli,True,1298
A1GXFMAC759VRM:3DZQRBDBSMUVNJM9G7WCF5YEZIU3SE,174,19,407710,Bunny_1_1,Bunny,categoryIgnore1D,carrot,carrot,True,970
A1GXFMAC759VRM:3DZQRBDBSMUVNJM9G7WCF5YEZIU3SE,175,1,416133,Squid_6_1,Squid,category1D,waffles,waffles,True,1725
A1GXFMAC759VRM:3DZQRBDBSMUVNJM9G7WCF5YEZIU3SE,176,2,418616,Squid_4_1,Squid,category1D,waffles,waffles,True,1149
A1GXFMAC759VRM:3DZQRBDBSMUVNJM9G7WCF5YEZIU3SE,177,3,420527,Squid_3_1,Squid,category1D,waffles,waffles,True,1363
A1GXFMAC759VRM:3DZQRBDBSMUVNJM9G7WCF5YEZIU3SE,178,4,422649,Squid_3_1,Squid,category1D,waffles,waffles,True,1012
A1GXFMAC759VRM:3DZQRBDBSMUVNJM9G7WCF5YEZIU3SE,179,5,424420,Squid_4_1,Squid,category1D,waffles,waffles,True,786
A1GXFMAC759VRM:3DZQRBDBSMUVNJM9G7WCF5YEZIU3SE,180,6,425965,Squid_2_1,Squid,category1D,pancakes,pancakes,True,1102
A1GXFMAC759VRM:3DZQRBDBSMUVNJM9G7WCF5YEZIU3SE,181,7,427828,Squid_6_1,Squid,category1D,waffles,waffles,True,1066
A1GXFMAC759VRM:3DZQRBDBSMUVNJM9G7WCF5YEZIU3SE,182,1,431558,GreenMonster_5_4,GreenMonster,category2D,oranges,bananas,False,1576
A1GXFMAC759VRM:3DZQRBDBSMUVNJM9G7WCF5YEZIU3SE,183,2,434393,GreenMonster_5_5,GreenMonster,category2D,oranges,oranges,True,1090
A1GXFMAC759VRM:3DZQRBDBSMUVNJM9G7WCF5YEZIU3SE,184,3,436239,GreenMonster_1_6,GreenMonster,category2D,oranges,oranges,True,1402
A1GXFMAC759VRM:3DZQRBDBSMUVNJM9G7WCF5YEZIU3SE,185,4,438399,GreenMonster_6_6,GreenMonster,category2D,oranges,oranges,True,916
A1GXFMAC759VRM:3DZQRBDBSMUVNJM9G7WCF5YEZIU3SE,186,5,440072,GreenMonster_3_3,GreenMonster,category2D,bananas,bananas,True,917
A1GXFMAC759VRM:3DZQRBDBSMUVNJM9G7WCF5YEZIU3SE,187,6,441746,GreenMonster_4_4,GreenMonster,category2D,bananas,oranges,False,1087
A1GXFMAC759VRM:3DZQRBDBSMUVNJM9G7WCF5YEZIU3SE,188,7,444093,GreenMonster_2_5,GreenMonster,category2D,oranges,oranges,True,671
A1GXFMAC759VRM:3DZQRBDBSMUVNJM9G7WCF5YEZIU3SE,189,8,445525,GreenMonster_1_4,GreenMonster,category2D,bananas,oranges,False,1482
A1GXFMAC759VRM:3DZQRBDBSMUVNJM9G7WCF5YEZIU3SE,190,9,448265,GreenMonster_6_3,GreenMonster,category2D,oranges,oranges,True,972
A1GXFMAC759VRM:3DZQRBDBSMUVNJM9G7WCF5YEZIU3SE,191,10,449997,GreenMonster_2_1,GreenMonster,category2D,bananas,bananas,True,1821
A1GXFMAC759VRM:3DZQRBDBSMUVNJM9G7WCF5YEZIU3SE,192,11,452578,GreenMonster_4_5,GreenMonster,category2D,oranges,oranges,True,1188
A1GXFMAC759VRM:3DZQRBDBSMUVNJM9G7WCF5YEZIU3SE,193,12,454530,GreenMonster_2_6,GreenMonster,category2D,oranges,bananas,False,1463
A1GXFMAC759VRM:3DZQRBDBSMUVNJM9G7WCF5YEZIU3SE,194,13,457253,GreenMonster_4_4,GreenMonster,category2D,bananas,oranges,False,815
A1GXFMAC759VRM:3DZQRBDBSMUVNJM9G7WCF5YEZIU3SE,195,14,459326,GreenMonster_2_1,GreenMonster,category2D,bananas,oranges,False,956
A1GXFMAC759VRM:3DZQRBDBSMUVNJM9G7WCF5YEZIU3SE,196,15,461545,GreenMonster_1_1,GreenMonster,category2D,bananas,oranges,False,988
A1GXFMAC759VRM:3DZQRBDBSMUVNJM9G7WCF5YEZIU3SE,197,16,463793,GreenMonster_6_4,GreenMonster,category2D,oranges,oranges,True,1174
A1GXFMAC759VRM:3DZQRBDBSMUVNJM9G7WCF5YEZIU3SE,198,17,465724,GreenMonster_2_6,GreenMonster,category2D,oranges,bananas,False,1793
A1GXFMAC759VRM:3DZQRBDBSMUVNJM9G7WCF5YEZIU3SE,199,18,468776,GreenMonster_3_4,GreenMonster,category2D,bananas,bananas,True,2240
A1GXFMAC759VRM:3DZQRBDBSMUVNJM9G7WCF5YEZIU3SE,200,19,471775,GreenMonster_5_2,GreenMonster,category2D,oranges,bananas,False,1264
A1GXFMAC759VRM:3DZQRBDBSMUVNJM9G7WCF5YEZIU3SE,201,20,474302,GreenMonster_6_1,GreenMonster,category2D,oranges,oranges,True,983
A1GXFMAC759VRM:3DZQRBDBSMUVNJM9G7WCF5YEZIU3SE,202,21,476044,GreenMonster_6_5,GreenMonster,category2D,oranges,oranges,True,984
A1GXFMAC759VRM:3DZQRBDBSMUVNJM9G7WCF5YEZIU3SE,203,22,477790,GreenMonster_6_1,GreenMonster,category2D,oranges,oranges,True,679
A1GXFMAC759VRM:3DZQRBDBSMUVNJM9G7WCF5YEZIU3SE,204,23,479230,GreenMonster_2_5,GreenMonster,category2D,oranges,bananas,False,1463
A1GXFMAC759VRM:3DZQRBDBSMUVNJM9G7WCF5YEZIU3SE,205,24,481950,GreenMonster_3_1,GreenMonster,category2D,bananas,oranges,False,943
A1GXFMAC759VRM:3DZQRBDBSMUVNJM9G7WCF5YEZIU3SE,206,25,484153,GreenMonster_3_3,GreenMonster,category2D,bananas,bananas,True,1236
A1GXFMAC759VRM:3DZQRBDBSMUVNJM9G7WCF5YEZIU3SE,207,26,486150,GreenMonster_2_3,GreenMonster,category2D,bananas,bananas,True,737
A1GXFMAC759VRM:3DZQRBDBSMUVNJM9G7WCF5YEZIU3SE,208,27,487653,GreenMonster_4_4,GreenMonster,category2D,bananas,oranges,False,1027
A1GXFMAC759VRM:3DZQRBDBSMUVNJM9G7WCF5YEZIU3SE,209,28,489941,GreenMonster_5_2,GreenMonster,category2D,oranges,oranges,True,1013
A1GXFMAC759VRM:3DZQRBDBSMUVNJM9G7WCF5YEZIU3SE,210,29,491713,GreenMonster_2_4,GreenMonster,category2D,bananas,bananas,True,1097
A1GXFMAC759VRM:3DZQRBDBSMUVNJM9G7WCF5YEZIU3SE,211,30,493575,GreenMonster_4_4,GreenMonster,category2D,bananas,oranges,False,908
A1GXFMAC759VRM:3DZQRBDBSMUVNJM9G7WCF5YEZIU3SE,212,31,495742,GreenMonster_3_5,GreenMonster,category2D,oranges,bananas,False,1490
A1GXFMAC759VRM:3DZQRBDBSMUVNJM9G7WCF5YEZIU3SE,213,32,498491,GreenMonster_4_6,GreenMonster,category2D,oranges,oranges,True,1108
A1GXFMAC759VRM:3DZQRBDBSMUVNJM9G7WCF5YEZIU3SE,214,33,500366,GreenMonster_1_2,GreenMonster,category2D,bananas,bananas,True,2109
A1GXFMAC759VRM:3DZQRBDBSMUVNJM9G7WCF5YEZIU3SE,215,34,503234,GreenMonster_6_1,GreenMonster,category2D,oranges,oranges,True,1032
A1GXFMAC759VRM:3DZQRBDBSMUVNJM9G7WCF5YEZIU3SE,216,35,505024,GreenMonster_4_3,GreenMonster,category2D,bananas,bananas,True,1384
A1GXFMAC759VRM:3DZQRBDBSMUVNJM9G7WCF5YEZIU3SE,217,36,507169,GreenMonster_4_2,GreenMonster,category2D,bananas,bananas,True,934
A1GXFMAC759VRM:3DZQRBDBSMUVNJM9G7WCF5YEZIU3SE,218,37,508864,GreenMonster_2_2,GreenMonster,category2D,bananas,bananas,True,854
A1GXFMAC759VRM:3DZQRBDBSMUVNJM9G7WCF5YEZIU3SE,219,38,510478,GreenMonster_1_3,GreenMonster,category2D,bananas,bananas,True,863
A1GXFMAC759VRM:3DZQRBDBSMUVNJM9G7WCF5YEZIU3SE,220,39,512099,GreenMonster_6_1,GreenMonster,category2D,oranges,oranges,True,977
A1GXFMAC759VRM:3DZQRBDBSMUVNJM9G7WCF5YEZIU3SE,221,40,513839,GreenMonster_6_6,GreenMonster,category2D,oranges,oranges,True,827
A1GXFMAC759VRM:3DZQRBDBSMUVNJM9G7WCF5YEZIU3SE,222,41,515430,GreenMonster_3_1,GreenMonster,category2D,bananas,bananas,True,1234
A1GXFMAC759VRM:3DZQRBDBSMUVNJM9G7WCF5YEZIU3SE,223,42,517426,GreenMonster_6_2,GreenMonster,category2D,oranges,oranges,True,1956
A1GXFMAC759VRM:3DZQRBDBSMUVNJM9G7WCF5YEZIU3SE,224,43,520143,GreenMonster_5_5,GreenMonster,category2D,oranges,oranges,True,861
A1GXFMAC759VRM:3DZQRBDBSMUVNJM9G7WCF5YEZIU3SE,225,44,521768,GreenMonster_6_5,GreenMonster,category2D,oranges,oranges,True,698
A1GXFMAC759VRM:3DZQRBDBSMUVNJM9G7WCF5YEZIU3SE,226,45,523232,GreenMonster_3_3,GreenMonster,category2D,bananas,bananas,True,834
A1GXFMAC759VRM:3DZQRBDBSMUVNJM9G7WCF5YEZIU3SE,227,46,524826,GreenMonster_4_4,GreenMonster,category2D,bananas,bananas,True,1642
A1GXFMAC759VRM:3DZQRBDBSMUVNJM9G7WCF5YEZIU3SE,228,47,527231,GreenMonster_2_2,GreenMonster,category2D,bananas,bananas,True,1234
A1GXFMAC759VRM:3DZQRBDBSMUVNJM9G7WCF5YEZIU3SE,229,48,529228,GreenMonster_6_5,GreenMonster,category2D,oranges,oranges,True,929
A1GXFMAC759VRM:3DZQRBDBSMUVNJM9G7WCF5YEZIU3SE,230,49,530915,GreenMonster_1_2,GreenMonster,category2D,bananas,bananas,True,968
A1GXFMAC759VRM:3DZQRBDBSMUVNJM9G7WCF5YEZIU3SE,231,50,532647,GreenMonster_1_1,GreenMonster,category2D,bananas,bananas,True,4428
A1GXFMAC759VRM:3DZQRBDBSMUVNJM9G7WCF5YEZIU3SE,232,51,537834,GreenMonster_6_1,GreenMonster,category2D,oranges,oranges,True,1174
A1GXFMAC759VRM:3DZQRBDBSMUVNJM9G7WCF5YEZIU3SE,233,1,540646,Bear_3_2,Bear,categoryRandom,grilled_cheese,tacos,False,2005
A1GXFMAC759VRM:3DZQRBDBSMUVNJM9G7WCF5YEZIU3SE,234,2,543914,Bear_3_4,Bear,categoryRandom,tacos,grilled_cheese,False,1523
A1GXFMAC759VRM:3DZQRBDBSMUVNJM9G7WCF5YEZIU3SE,235,3,546693,Bear_1_4,Bear,categoryRandom,tacos,grilled_cheese,False,3046
A1GXFMAC759VRM:3DZQRBDBSMUVNJM9G7WCF5YEZIU3SE,236,4,550997,Bear_1_5,Bear,categoryRandom,grilled_cheese,tacos,False,1106
A1GXFMAC759VRM:3DZQRBDBSMUVNJM9G7WCF5YEZIU3SE,237,5,553364,Bear_3_3,Bear,categoryRandom,grilled_cheese,tacos,False,2562
A1GXFMAC759VRM:3DZQRBDBSMUVNJM9G7WCF5YEZIU3SE,238,6,557184,Bear_4_4,Bear,categoryRandom,grilled_cheese,tacos,False,560
A1GXFMAC759VRM:3DZQRBDBSMUVNJM9G7WCF5YEZIU3SE,239,7,559002,Bear_6_2,Bear,categoryRandom,tacos,tacos,True,606
A1GXFMAC759VRM:3DZQRBDBSMUVNJM9G7WCF5YEZIU3SE,240,8,560371,Bear_2_2,Bear,categoryRandom,grilled_cheese,grilled_cheese,True,1375
A1GXFMAC759VRM:3DZQRBDBSMUVNJM9G7WCF5YEZIU3SE,241,9,562507,Bear_5_2,Bear,categoryRandom,grilled_cheese,tacos,False,1156
A1GXFMAC759VRM:3DZQRBDBSMUVNJM9G7WCF5YEZIU3SE,242,10,564922,Bear_2_5,Bear,categoryRandom,tacos,grilled_cheese,False,1136
A1GXFMAC759VRM:3DZQRBDBSMUVNJM9G7WCF5YEZIU3SE,243,11,567317,Bear_4_1,Bear,categoryRandom,tacos,tacos,True,2951
A1GXFMAC759VRM:3DZQRBDBSMUVNJM9G7WCF5YEZIU3SE,244,12,571030,Bear_3_6,Bear,categoryRandom,grilled_cheese,tacos,False,2554
A1GXFMAC759VRM:3DZQRBDBSMUVNJM9G7WCF5YEZIU3SE,245,13,574848,Bear_3_6,Bear,categoryRandom,grilled_cheese,grilled_cheese,True,1642
A1GXFMAC759VRM:3DZQRBDBSMUVNJM9G7WCF5YEZIU3SE,246,14,577251,Bear_2_3,Bear,categoryRandom,tacos,grilled_cheese,False,1185
A1GXFMAC759VRM:3DZQRBDBSMUVNJM9G7WCF5YEZIU3SE,247,15,579695,Bear_5_2,Bear,categoryRandom,grilled_cheese,tacos,False,1371
A1GXFMAC759VRM:3DZQRBDBSMUVNJM9G7WCF5YEZIU3SE,248,16,582323,Bear_3_6,Bear,categoryRandom,grilled_cheese,grilled_cheese,True,268
A1GXFMAC759VRM:3DZQRBDBSMUVNJM9G7WCF5YEZIU3SE,249,17,583352,Bear_6_1,Bear,categoryRandom,grilled_cheese,tacos,False,1484
A1GXFMAC759VRM:3DZQRBDBSMUVNJM9G7WCF5YEZIU3SE,250,18,586097,Bear_6_3,Bear,categoryRandom,tacos,grilled_cheese,False,163
A1GXFMAC759VRM:3DZQRBDBSMUVNJM9G7WCF5YEZIU3SE,251,19,587520,Bear_1_4,Bear,categoryRandom,tacos,grilled_cheese,False,348
A1GXFMAC759VRM:3DZQRBDBSMUVNJM9G7WCF5YEZIU3SE,252,20,589128,Bear_2_5,Bear,categoryRandom,tacos,grilled_cheese,False,425
A1GXFMAC759VRM:3DZQRBDBSMUVNJM9G7WCF5YEZIU3SE,253,21,590818,Bear_2_2,Bear,categoryRandom,grilled_cheese,grilled_cheese,True,222
A1GXFMAC759VRM:3DZQRBDBSMUVNJM9G7WCF5YEZIU3SE,254,22,591804,Bear_3_3,Bear,categoryRandom,grilled_cheese,grilled_cheese,True,700
A1GXFMAC759VRM:3DZQRBDBSMUVNJM9G7WCF5YEZIU3SE,255,23,593266,Bear_2_4,Bear,categoryRandom,grilled_cheese,grilled_cheese,True,782
A1GXFMAC759VRM:3DZQRBDBSMUVNJM9G7WCF5YEZIU3SE,256,24,594808,Bear_5_6,Bear,categoryRandom,grilled_cheese,grilled_cheese,True,833
A1GXFMAC759VRM:3DZQRBDBSMUVNJM9G7WCF5YEZIU3SE,257,25,596400,Bear_6_1,Bear,categoryRandom,grilled_cheese,grilled_cheese,True,1184
A1GXFMAC759VRM:3DZQRBDBSMUVNJM9G7WCF5YEZIU3SE,258,26,598346,Bear_1_5,Bear,categoryRandom,grilled_cheese,tacos,False,1757
A1GXFMAC759VRM:3DZQRBDBSMUVNJM9G7WCF5YEZIU3SE,259,27,601364,Bear_1_2,Bear,categoryRandom,tacos,grilled_cheese,False,922
A1GXFMAC759VRM:3DZQRBDBSMUVNJM9G7WCF5YEZIU3SE,260,28,603547,Bear_3_1,Bear,categoryRandom,grilled_cheese,grilled_cheese,True,841
A1GXFMAC759VRM:3DZQRBDBSMUVNJM9G7WCF5YEZIU3SE,261,29,605149,Bear_6_5,Bear,categoryRandom,tacos,grilled_cheese,False,1124
A1GXFMAC759VRM:3DZQRBDBSMUVNJM9G7WCF5YEZIU3SE,262,30,607535,Bear_2_6,Bear,categoryRandom,grilled_cheese,grilled_cheese,True,1123
A1GXFMAC759VRM:3DZQRBDBSMUVNJM9G7WCF5YEZIU3SE,263,31,609421,Bear_1_1,Bear,categoryRandom,tacos,tacos,True,1467
A1GXFMAC759VRM:3DZQRBDBSMUVNJM9G7WCF5YEZIU3SE,264,32,611646,Bear_4_3,Bear,categoryRandom,grilled_cheese,grilled_cheese,True,946
A1GXFMAC759VRM:3DZQRBDBSMUVNJM9G7WCF5YEZIU3SE,265,33,613352,Bear_5_3,Bear,categoryRandom,grilled_cheese,grilled_cheese,True,894
A1GXFMAC759VRM:3DZQRBDBSMUVNJM9G7WCF5YEZIU3SE,266,34,615008,Bear_5_6,Bear,categoryRandom,grilled_cheese,grilled_cheese,True,1349
A1GXFMAC759VRM:3DZQRBDBSMUVNJM9G7WCF5YEZIU3SE,267,35,617116,Bear_1_6,Bear,categoryRandom,tacos,tacos,True,1680
A1GXFMAC759VRM:3DZQRBDBSMUVNJM9G7WCF5YEZIU3SE,268,36,619553,Bear_4_2,Bear,categoryRandom,tacos,grilled_cheese,False,1186
A1GXFMAC759VRM:3DZQRBDBSMUVNJM9G7WCF5YEZIU3SE,269,37,622002,Bear_5_1,Bear,categoryRandom,grilled_cheese,tacos,False,1384
A1GXFMAC759VRM:3DZQRBDBSMUVNJM9G7WCF5YEZIU3SE,270,38,624648,Bear_5_3,Bear,categoryRandom,grilled_cheese,grilled_cheese,True,178
A1GXFMAC759VRM:3DZQRBDBSMUVNJM9G7WCF5YEZIU3SE,271,39,625588,Bear_2_1,Bear,categoryRandom,tacos,tacos,True,1549
A1GXFMAC759VRM:3DZQRBDBSMUVNJM9G7WCF5YEZIU3SE,272,40,627896,Bear_2_5,Bear,categoryRandom,tacos,grilled_cheese,False,914
A1GXFMAC759VRM:3DZQRBDBSMUVNJM9G7WCF5YEZIU3SE,273,41,630067,Bear_6_4,Bear,categoryRandom,tacos,grilled_cheese,False,940
A1GXFMAC759VRM:3DZQRBDBSMUVNJM9G7WCF5YEZIU3SE,274,42,632270,Bear_2_3,Bear,categoryRandom,tacos,grilled_cheese,False,914
A1GXFMAC759VRM:3DZQRBDBSMUVNJM9G7WCF5YEZIU3SE,275,43,634446,Bear_3_5,Bear,categoryRandom,tacos,grilled_cheese,False,697
A1GXFMAC759VRM:3DZQRBDBSMUVNJM9G7WCF5YEZIU3SE,276,44,636403,Bear_6_3,Bear,categoryRandom,tacos,grilled_cheese,False,869
A1GXFMAC759VRM:3DZQRBDBSMUVNJM9G7WCF5YEZIU3SE,277,45,638533,Bear_3_1,Bear,categoryRandom,grilled_cheese,tacos,False,5858
A1GXFMAC759VRM:3DZQRBDBSMUVNJM9G7WCF5YEZIU3SE,278,46,645649,Bear_5_6,Bear,categoryRandom,grilled_cheese,tacos,False,1090
A1GXFMAC759VRM:3DZQRBDBSMUVNJM9G7WCF5YEZIU3SE,279,47,647998,Bear_5_3,Bear,categoryRandom,grilled_cheese,grilled_cheese,True,455
A1GXFMAC759VRM:3DZQRBDBSMUVNJM9G7WCF5YEZIU3SE,280,48,649215,Bear_6_3,Bear,categoryRandom,tacos,grilled_cheese,False,490
A1GXFMAC759VRM:3DZQRBDBSMUVNJM9G7WCF5YEZIU3SE,281,49,650965,Bear_2_5,Bear,categoryRandom,tacos,grilled_cheese,False,631
A1GXFMAC759VRM:3DZQRBDBSMUVNJM9G7WCF5YEZIU3SE,282,50,652860,Bear_2_2,Bear,categoryRandom,grilled_cheese,tacos,False,1140
A1GXFMAC759VRM:3DZQRBDBSMUVNJM9G7WCF5YEZIU3SE,283,51,655263,Bear_2_2,Bear,categoryRandom,grilled_cheese,tacos,False,524
A1GXFMAC759VRM:3DZQRBDBSMUVNJM9G7WCF5YEZIU3SE,284,52,657045,Bear_4_5,Bear,categoryRandom,tacos,grilled_cheese,False,783
A1GXFMAC759VRM:3DZQRBDBSMUVNJM9G7WCF5YEZIU3SE,285,53,659085,Bear_2_6,Bear,categoryRandom,grilled_cheese,grilled_cheese,True,554
A1GXFMAC759VRM:3DZQRBDBSMUVNJM9G7WCF5YEZIU3SE,286,54,660400,Bear_5_1,Bear,categoryRandom,grilled_cheese,grilled_cheese,True,633
A1GXFMAC759VRM:3DZQRBDBSMUVNJM9G7WCF5YEZIU3SE,287,55,661799,Bear_3_4,Bear,categoryRandom,tacos,grilled_cheese,False,836
A1GXFMAC759VRM:3DZQRBDBSMUVNJM9G7WCF5YEZIU3SE,288,1,664301,GreenMonster_4_4,GreenMonster,category2D,bananas,oranges,False,2280
A1GXFMAC759VRM:3DZQRBDBSMUVNJM9G7WCF5YEZIU3SE,289,2,667842,GreenMonster_3_2,GreenMonster,category2D,bananas,bananas,True,1100
A1GXFMAC759VRM:3DZQRBDBSMUVNJM9G7WCF5YEZIU3SE,290,3,669703,GreenMonster_3_5,GreenMonster,category2D,oranges,bananas,False,967
A1GXFMAC759VRM:3DZQRBDBSMUVNJM9G7WCF5YEZIU3SE,291,4,671934,GreenMonster_1_1,GreenMonster,category2D,bananas,bananas,True,1266
A1GXFMAC759VRM:3DZQRBDBSMUVNJM9G7WCF5YEZIU3SE,292,5,673966,GreenMonster_2_4,GreenMonster,category2D,bananas,bananas,True,779
A1GXFMAC759VRM:3DZQRBDBSMUVNJM9G7WCF5YEZIU3SE,293,6,675506,GreenMonster_3_4,GreenMonster,category2D,bananas,bananas,True,1264
A1GXFMAC759VRM:3DZQRBDBSMUVNJM9G7WCF5YEZIU3SE,294,7,677530,GreenMonster_5_3,GreenMonster,category2D,oranges,oranges,True,825
A1GXFMAC759VRM:3DZQRBDBSMUVNJM9G7WCF5YEZIU3SE,295,8,679117,GreenMonster_2_1,GreenMonster,category2D,bananas,bananas,True,1431
A1GXFMAC759VRM:3DZQRBDBSMUVNJM9G7WCF5YEZIU3SE,296,9,681309,GreenMonster_5_2,GreenMonster,category2D,oranges,oranges,True,750
A1GXFMAC759VRM:3DZQRBDBSMUVNJM9G7WCF5YEZIU3SE,297,10,682821,GreenMonster_2_1,GreenMonster,category2D,bananas,bananas,True,655
A1GXFMAC759VRM:3DZQRBDBSMUVNJM9G7WCF5YEZIU3SE,298,11,684235,GreenMonster_4_1,GreenMonster,category2D,bananas,oranges,False,930
A1GXFMAC759VRM:3DZQRBDBSMUVNJM9G7WCF5YEZIU3SE,299,12,686429,GreenMonster_2_2,GreenMonster,category2D,bananas,bananas,True,1850
A1GXFMAC759VRM:3DZQRBDBSMUVNJM9G7WCF5YEZIU3SE,300,13,689041,GreenMonster_6_2,GreenMonster,category2D,oranges,oranges,True,2355
A1GXFMAC759VRM:3DZQRBDBSMUVNJM9G7WCF5YEZIU3SE,301,14,692158,GreenMonster_4_2,GreenMonster,category2D,bananas,oranges,False,4435
A1GXFMAC759VRM:3DZQRBDBSMUVNJM9G7WCF5YEZIU3SE,302,15,697853,GreenMonster_6_3,GreenMonster,category2D,oranges,oranges,True,7252
A1GXFMAC759VRM:3DZQRBDBSMUVNJM9G7WCF5YEZIU3SE,303,16,705869,GreenMonster_2_5,GreenMonster,category2D,oranges,bananas,False,1472
A1GXFMAC759VRM:3DZQRBDBSMUVNJM9G7WCF5YEZIU3SE,304,17,708603,GreenMonster_5_1,GreenMonster,category2D,oranges,oranges,True,1605
A1GXFMAC759VRM:3DZQRBDBSMUVNJM9G7WCF5YEZIU3SE,305,18,710972,GreenMonster_4_2,GreenMonster,category2D,bananas,bananas,True,2844
A1GXFMAC759VRM:3DZQRBDBSMUVNJM9G7WCF5YEZIU3SE,306,19,714577,GreenMonster_4_3,GreenMonster,category2D,bananas,bananas,True,926
A1GXFMAC759VRM:3DZQRBDBSMUVNJM9G7WCF5YEZIU3SE,307,20,716266,GreenMonster_5_4,GreenMonster,category2D,oranges,oranges,True,1285
A1GXFMAC759VRM:3DZQRBDBSMUVNJM9G7WCF5YEZIU3SE,308,21,718314,GreenMonster_1_1,GreenMonster,category2D,bananas,bananas,True,1367
A1GXFMAC759VRM:3DZQRBDBSMUVNJM9G7WCF5YEZIU3SE,309,22,720446,GreenMonster_1_2,GreenMonster,category2D,bananas,bananas,True,1012
A1GXFMAC759VRM:3DZQRBDBSMUVNJM9G7WCF5YEZIU3SE,310,23,722219,GreenMonster_2_3,GreenMonster,category2D,bananas,bananas,True,887
A1GXFMAC759VRM:3DZQRBDBSMUVNJM9G7WCF5YEZIU3SE,311,24,723870,GreenMonster_2_6,GreenMonster,category2D,oranges,bananas,False,900
A1GXFMAC759VRM:3DZQRBDBSMUVNJM9G7WCF5YEZIU3SE,312,25,726035,GreenMonster_2_6,GreenMonster,category2D,oranges,oranges,True,1182
A1GXFMAC759VRM:3DZQRBDBSMUVNJM9G7WCF5YEZIU3SE,313,26,727980,GreenMonster_6_1,GreenMonster,category2D,oranges,oranges,True,2260
A1GXFMAC759VRM:3DZQRBDBSMUVNJM9G7WCF5YEZIU3SE,314,27,730999,GreenMonster_2_2,GreenMonster,category2D,bananas,bananas,True,3142
A1GXFMAC759VRM:3DZQRBDBSMUVNJM9G7WCF5YEZIU3SE,315,28,734900,GreenMonster_1_4,GreenMonster,category2D,bananas,bananas,True,1233
A1GXFMAC759VRM:3DZQRBDBSMUVNJM9G7WCF5YEZIU3SE,316,29,736896,GreenMonster_4_6,GreenMonster,category2D,oranges,oranges,True,2243
A1GXFMAC759VRM:3DZQRBDBSMUVNJM9G7WCF5YEZIU3SE,317,30,739899,GreenMonster_6_3,GreenMonster,category2D,oranges,oranges,True,1080
A1GXFMAC759VRM:3DZQRBDBSMUVNJM9G7WCF5YEZIU3SE,318,31,741743,GreenMonster_4_5,GreenMonster,category2D,oranges,bananas,False,1814
A1GXFMAC759VRM:3DZQRBDBSMUVNJM9G7WCF5YEZIU3SE,319,32,744820,GreenMonster_5_6,GreenMonster,category2D,oranges,oranges,True,1333
A1GXFMAC759VRM:3DZQRBDBSMUVNJM9G7WCF5YEZIU3SE,320,33,746921,GreenMonster_4_2,GreenMonster,category2D,bananas,bananas,True,1344
A1GXFMAC759VRM:3DZQRBDBSMUVNJM9G7WCF5YEZIU3SE,321,34,749028,GreenMonster_1_6,GreenMonster,category2D,oranges,bananas,False,1276
A1GXFMAC759VRM:3DZQRBDBSMUVNJM9G7WCF5YEZIU3SE,322,35,751565,GreenMonster_5_5,GreenMonster,category2D,oranges,oranges,True,5708
A1GXFMAC759VRM:3DZQRBDBSMUVNJM9G7WCF5YEZIU3SE,323,36,758036,GreenMonster_6_3,GreenMonster,category2D,oranges,oranges,True,804
A1GXFMAC759VRM:3DZQRBDBSMUVNJM9G7WCF5YEZIU3SE,324,37,759605,GreenMonster_3_1,GreenMonster,category2D,bananas,bananas,True,1645
A1GXFMAC759VRM:3DZQRBDBSMUVNJM9G7WCF5YEZIU3SE,325,38,762012,GreenMonster_4_3,GreenMonster,category2D,bananas,bananas,True,3388
A1GXFMAC759VRM:3DZQRBDBSMUVNJM9G7WCF5YEZIU3SE,326,39,766165,GreenMonster_1_2,GreenMonster,category2D,bananas,bananas,True,1849
A1GXFMAC759VRM:3DZQRBDBSMUVNJM9G7WCF5YEZIU3SE,327,40,768777,GreenMonster_2_6,GreenMonster,category2D,oranges,bananas,False,5001
A1GXFMAC759VRM:3DZQRBDBSMUVNJM9G7WCF5YEZIU3SE,328,41,775036,GreenMonster_1_6,GreenMonster,category2D,oranges,oranges,True,3824
A1GXFMAC759VRM:3DZQRBDBSMUVNJM9G7WCF5YEZIU3SE,329,42,779625,GreenMonster_5_2,GreenMonster,category2D,oranges,oranges,True,3913
A1GXFMAC759VRM:3DZQRBDBSMUVNJM9G7WCF5YEZIU3SE,330,43,784299,GreenMonster_3_1,GreenMonster,category2D,bananas,bananas,True,2226
A1GXFMAC759VRM:3DZQRBDBSMUVNJM9G7WCF5YEZIU3SE,331,44,787288,GreenMonster_5_2,GreenMonster,category2D,oranges,oranges,True,1377
A1GXFMAC759VRM:3DZQRBDBSMUVNJM9G7WCF5YEZIU3SE,332,45,789423,GreenMonster_5_1,GreenMonster,category2D,oranges,oranges,True,1576
A1GXFMAC759VRM:3DZQRBDBSMUVNJM9G7WCF5YEZIU3SE,333,46,791764,GreenMonster_6_4,GreenMonster,category2D,oranges,oranges,True,4016
A1GXFMAC759VRM:3DZQRBDBSMUVNJM9G7WCF5YEZIU3SE,334,47,796537,GreenMonster_2_1,GreenMonster,category2D,bananas,bananas,True,1835
A1GXFMAC759VRM:3DZQRBDBSMUVNJM9G7WCF5YEZIU3SE,335,48,799136,GreenMonster_3_4,GreenMonster,category2D,bananas,bananas,True,901
A1GXFMAC759VRM:3DZQRBDBSMUVNJM9G7WCF5YEZIU3SE,336,49,800802,GreenMonster_1_2,GreenMonster,category2D,bananas,bananas,True,1151
A1GXFMAC759VRM:3DZQRBDBSMUVNJM9G7WCF5YEZIU3SE,337,50,802717,GreenMonster_4_2,GreenMonster,category2D,bananas,oranges,False,1518
A1GXFMAC759VRM:3DZQRBDBSMUVNJM9G7WCF5YEZIU3SE,338,1,807423,Bear_2_1,Bear,categoryRandom,tacos,tacos,True,1576
A1GXFMAC759VRM:3DZQRBDBSMUVNJM9G7WCF5YEZIU3SE,339,2,809758,Bear_1_4,Bear,categoryRandom,tacos,tacos,True,1709
A1GXFMAC759VRM:3DZQRBDBSMUVNJM9G7WCF5YEZIU3SE,340,3,812229,Bear_3_3,Bear,categoryRandom,grilled_cheese,tacos,False,1542
A1GXFMAC759VRM:3DZQRBDBSMUVNJM9G7WCF5YEZIU3SE,341,4,815036,Bear_1_5,Bear,categoryRandom,grilled_cheese,grilled_cheese,True,947
A1GXFMAC759VRM:3DZQRBDBSMUVNJM9G7WCF5YEZIU3SE,342,5,816748,Bear_2_3,Bear,categoryRandom,tacos,grilled_cheese,False,788
A1GXFMAC759VRM:3DZQRBDBSMUVNJM9G7WCF5YEZIU3SE,343,6,818797,Bear_2_4,Bear,categoryRandom,grilled_cheese,grilled_cheese,True,838
A1GXFMAC759VRM:3DZQRBDBSMUVNJM9G7WCF5YEZIU3SE,344,7,820395,Bear_6_4,Bear,categoryRandom,tacos,grilled_cheese,False,1168
A1GXFMAC759VRM:3DZQRBDBSMUVNJM9G7WCF5YEZIU3SE,345,8,822825,Bear_1_1,Bear,categoryRandom,tacos,grilled_cheese,False,1059
A1GXFMAC759VRM:3DZQRBDBSMUVNJM9G7WCF5YEZIU3SE,346,9,825148,Bear_6_5,Bear,categoryRandom,tacos,grilled_cheese,False,833
A1GXFMAC759VRM:3DZQRBDBSMUVNJM9G7WCF5YEZIU3SE,347,10,827243,Bear_2_5,Bear,categoryRandom,tacos,grilled_cheese,False,853
A1GXFMAC759VRM:3DZQRBDBSMUVNJM9G7WCF5YEZIU3SE,348,11,829361,Bear_3_2,Bear,categoryRandom,grilled_cheese,grilled_cheese,True,2162
A1GXFMAC759VRM:3DZQRBDBSMUVNJM9G7WCF5YEZIU3SE,349,12,832287,Bear_5_6,Bear,categoryRandom,grilled_cheese,tacos,False,1929
A1GXFMAC759VRM:3DZQRBDBSMUVNJM9G7WCF5YEZIU3SE,350,13,835475,Bear_4_4,Bear,categoryRandom,grilled_cheese,tacos,False,1212
A1GXFMAC759VRM:3DZQRBDBSMUVNJM9G7WCF5YEZIU3SE,351,1,838934,Squid_6_1,Squid,category1D,waffles,waffles,True,1765
A1GXFMAC759VRM:3DZQRBDBSMUVNJM9G7WCF5YEZIU3SE,352,2,841465,Squid_2_1,Squid,category1D,pancakes,pancakes,True,1240
A1GXFMAC759VRM:3DZQRBDBSMUVNJM9G7WCF5YEZIU3SE,353,3,843467,Squid_5_1,Squid,category1D,waffles,waffles,True,1803
A1GXFMAC759VRM:3DZQRBDBSMUVNJM9G7WCF5YEZIU3SE,354,4,846033,Squid_6_1,Squid,category1D,waffles,waffles,True,873
A1GXFMAC759VRM:3DZQRBDBSMUVNJM9G7WCF5YEZIU3SE,355,5,847670,Squid_6_1,Squid,category1D,waffles,waffles,True,766
A1GXFMAC759VRM:3DZQRBDBSMUVNJM9G7WCF5YEZIU3SE,356,6,849197,Squid_6_1,Squid,category1D,waffles,waffles,True,921
A1GXFMAC759VRM:3DZQRBDBSMUVNJM9G7WCF5YEZIU3SE,357,1,852640,Bunny_4_5,Bunny,categoryIgnore1D,broccoli,broccoli,True,2580
A1GXFMAC759VRM:3DZQRBDBSMUVNJM9G7WCF5YEZIU3SE,358,2,855983,Bunny_6_3,Bunny,categoryIgnore1D,broccoli,broccoli,True,778
A1GXFMAC759VRM:3DZQRBDBSMUVNJM9G7WCF5YEZIU3SE,359,3,857526,Bunny_6_1,Bunny,categoryIgnore1D,broccoli,broccoli,True,1710
A1GXFMAC759VRM:3DZQRBDBSMUVNJM9G7WCF5YEZIU3SE,360,1,861289,GreenMonster_3_3,GreenMonster,category2D,bananas,bananas,True,3545
A1GXFMAC759VRM:3DZQRBDBSMUVNJM9G7WCF5YEZIU3SE,361,2,865602,GreenMonster_2_6,GreenMonster,category2D,oranges,bananas,False,6659
